File: Test_Data_Files/20250509_IF0011_IIA42_PBSair_E03_C_CV50_PEDOT.DTA
EXPLAIN
TAG	CV
TITLE	LABEL	CV50	Test Identifier
DATE	LABEL	5/9/2025	Date
TIME	LABEL	14:43:17	Time
NOTES	NOTES	1	Notes...

PSTAT	PSTAT	REF600P-43058	Potentiostat
VINIT	POTEN	0.00000E+000	T	Initial E (V)
VLIMIT1	POTEN	-9.00000E-001	F	Scan Limit 1 (V)
VLIMIT2	POTEN	6.00000E-001	F	Scan Limit 2 (V)
VFINAL	POTEN	0.00000E+000	T	Final E (V)
SCANRATE	QUANT	4.99999E+001	Scan Rate (mV/s)
STEPSIZE	QUANT	1.00000E+001	Step Size (mV)
CYCLES	IQUANT	3	Cycles (#)
IMODE	SELECTOR	1	I/E Range Mode
IRANGE	QUANT	1.00000E-003	Max Current (mA)
AREA	QUANT	1.00000E+000	Sample Area (cm^2)
EQDELAY	QUANT	5.00000E+000	Equil. Time (s)
IRCOMP	SELECTOR	0	IRComp
PFCOR	QUANT	5.00000E+001	PF Corr. (ohm)
SAMPLINGMODE	SELECTOR	2	Sampling Mode
EOC	QUANT	0.1704582	Open Circuit (V)
ELECTRODETYPE	SELECTOR	0	Electrode Type
STRIPPING	TOGGLE	F	Used for Stripping
SEQUENCER	TOGGLE	TRUE	Run as Sequence
PSTATMODEL	IQUANT	7	Pstat Model
PSTATSECTION	LABEL	REF600P-43058	Pstat Section
PSTATSERIALNO	LABEL	43058	Pstat Serial Number
CTRLMODE	IQUANT	1	Control Mode
ELECTROMETER	IQUANT	0	RE=0 or CS=1
IESTAB	IQUANT	2	I/E Stability
CASPEED	IQUANT	4	Control Amp Speed
CONVENTION	IQUANT	1	Current Convention
ICHRANGE	IQUANT	2	Ich Range
ICHRANGEMODE	TOGGLE	F	Ich Auto Range
ICHOFFSETENABLE	TOGGLE	F	Ich Offset Enable
ICHOFFSET	QUANT	0	Ich Offset (V)
ICHFILTER	IQUANT	2	Ich Filter
VCHRANGE	IQUANT	2	Vch Range
VCHRANGEMODE	TOGGLE	F	Vch Auto Range
VCHOFFSETENABLE	TOGGLE	F	Vch Offset Enable
VCHOFFSET	QUANT	0	Vch Offset (V)
VCHFILTER	IQUANT	2	Vch Filter
ACHRANGE	IQUANT	2	Ach Range
ACHOFFSETENABLE	TOGGLE	F	Ach Offset Enable
ACHOFFSET	QUANT	0	Ach Offset (V)
ACHFILTER	IQUANT	1	Ach Filter
IERANGELOWERLIMIT	IQUANT	1	I/E Range Lower Limit
IERANGEMODE	TOGGLE	F	I/E AutoRange
IERANGE	IQUANT	6	I/E Range
POSFEEDENABLE	TOGGLE	F	Positive Feedback IR Comp
POSFEEDRESISTANCE	QUANT	0	Positive Feedback Resistance (ohm)
ACHSELECT	IQUANT	4	Ach Select
SENSECABLEID	IQUANT	7	Sense Cable ID
PWRCABLEID	IQUANT	7	Power Cable ID
DCCALDATE	LABEL	5/8/2025	DC Calibration Date
ACCALDATE	LABEL	5/8/2025	AC Calibration Date
THERMOSELECT	IQUANT	1	Thermo Select
FRAMEWORKVERSION	LABEL	7.10.4	Framework Version
INSTRUMENTVERSION	LABEL	5.01	Instrument Version
COMMVERSION	LABEL	5.10	Communications Version
CPUPLDVERSION	LABEL	6.00	CPU PLD Version
CTRLPLDVERSION	LABEL	3.21	CTRL PLD Version
PSTATPLDVERSION	LABEL	0.00	PSTAT PLD Version
CURVE1	TABLE
	Pt	T	Vf	Im	Vu	Sig	Ach	IERange	Over	Temp
	#	s	V vs. Ref.	A	V	V	V	#	bits	deg C
	0	0.2	1.70445E-001	4.13537E-010	0.00000E+000	1.70450E-001	1.41702E-003	6	...........	-327.66
	1	0.4	1.60506E-001	-2.97625E-008	0.00000E+000	1.60450E-001	1.41872E-003	6	...........	-327.66
	2	0.6	1.50435E-001	-3.13179E-008	0.00000E+000	1.50450E-001	1.41048E-003	6	...........	-327.66
	3	0.8	1.40512E-001	-3.17461E-008	0.00000E+000	1.40450E-001	1.41622E-003	6	...........	-327.66
	4	1	1.30440E-001	-3.20901E-008	0.00000E+000	1.30450E-001	1.40836E-003	6	...........	-327.66
	5	1.2	1.20546E-001	-3.22921E-008	0.00000E+000	1.20450E-001	1.41512E-003	6	...........	-327.66
	6	1.4	1.10457E-001	-3.25631E-008	0.00000E+000	1.10450E-001	1.41443E-003	6	...........	-327.66
	7	1.6	1.00442E-001	-3.28347E-008	0.00000E+000	1.00450E-001	1.41890E-003	6	...........	-327.66
	8	1.8	9.04693E-002	-3.31110E-008	0.00000E+000	9.04500E-002	1.42740E-003	6	...........	-327.66
	9	2	8.04686E-002	-3.33487E-008	0.00000E+000	8.04500E-002	1.41645E-003	6	...........	-327.66
	10	2.2	7.04349E-002	-3.37181E-008	0.00000E+000	7.04500E-002	1.40838E-003	6	...........	-327.66
	11	2.4	6.04628E-002	-3.40396E-008	0.00000E+000	6.04500E-002	1.41883E-003	6	...........	-327.66
	12	2.6	5.04338E-002	-3.44392E-008	0.00000E+000	5.04500E-002	1.41427E-003	6	...........	-327.66
	13	2.8	4.06218E-002	-3.47184E-008	0.00000E+000	4.04500E-002	1.41662E-003	6	...........	-327.66
	14	3	3.04298E-002	-3.51537E-008	0.00000E+000	3.04500E-002	1.41737E-003	6	...........	-327.66
	15	3.2	2.04612E-002	-3.54981E-008	0.00000E+000	2.04500E-002	1.42022E-003	6	...........	-327.66
	16	3.4	1.05266E-002	-3.59240E-008	0.00000E+000	1.04500E-002	1.42695E-003	6	...........	-327.66
	17	3.6	5.09836E-004	-3.62480E-008	0.00000E+000	4.49985E-004	1.40876E-003	6	...........	-327.66
	18	3.8	-9.57314E-003	-3.66742E-008	0.00000E+000	-9.55001E-003	1.41477E-003	6	...........	-327.66
	19	4	-1.95420E-002	-3.71121E-008	0.00000E+000	-1.95500E-002	1.40771E-003	6	...........	-327.66
	20	4.2	-2.95692E-002	-3.75692E-008	0.00000E+000	-2.95500E-002	1.41442E-003	6	...........	-327.66
	21	4.4	-3.94922E-002	-3.79271E-008	0.00000E+000	-3.95500E-002	1.42123E-003	6	...........	-327.66
	22	4.6	-4.95821E-002	-3.84839E-008	0.00000E+000	-4.95500E-002	1.41982E-003	6	...........	-327.66
	23	4.8	-5.95222E-002	-3.89360E-008	0.00000E+000	-5.95500E-002	1.42295E-003	6	...........	-327.66
	24	5	-6.95253E-002	-3.94516E-008	0.00000E+000	-6.95500E-002	1.42153E-003	6	...........	-327.66
	25	5.2	-7.95116E-002	-3.99006E-008	0.00000E+000	-7.95500E-002	1.42132E-003	6	...........	-327.66
	26	5.4	-8.95818E-002	-4.04808E-008	0.00000E+000	-8.95500E-002	1.41590E-003	6	...........	-327.66
	27	5.6	-9.95646E-002	-4.09957E-008	0.00000E+000	-9.95500E-002	1.41110E-003	6	...........	-327.66
	28	5.8	-1.09572E-001	-4.15805E-008	0.00000E+000	-1.09550E-001	1.42457E-003	6	...........	-327.66
	29	6	-1.19517E-001	-4.20484E-008	0.00000E+000	-1.19550E-001	1.41790E-003	6	...........	-327.66
	30	6.2	-1.29589E-001	-4.27022E-008	0.00000E+000	-1.29550E-001	1.42437E-003	6	...........	-327.66
	31	6.4	-1.39408E-001	-4.32632E-008	0.00000E+000	-1.39550E-001	1.42610E-003	6	...........	-327.66
	32	6.6	-1.49552E-001	-4.39416E-008	0.00000E+000	-1.49550E-001	1.42660E-003	6	...........	-327.66
	33	6.8	-1.59478E-001	-4.44653E-008	0.00000E+000	-1.59550E-001	1.41460E-003	6	...........	-327.66
	34	7	-1.69526E-001	-4.51856E-008	0.00000E+000	-1.69550E-001	1.41802E-003	6	...........	-327.66
	35	7.2	-1.79573E-001	-4.58168E-008	0.00000E+000	-1.79550E-001	1.41777E-003	6	...........	-327.66
	36	7.4	-1.89526E-001	-4.64980E-008	0.00000E+000	-1.89550E-001	1.41570E-003	6	...........	-327.66
	37	7.6	-1.99542E-001	-4.71820E-008	0.00000E+000	-1.99550E-001	1.42814E-003	6	...........	-327.66
	38	7.8	-2.09561E-001	-4.79031E-008	0.00000E+000	-2.09550E-001	1.41807E-003	6	...........	-327.66
	39	8	-2.19472E-001	-4.86334E-008	0.00000E+000	-2.19550E-001	1.43294E-003	6	...........	-327.66
	40	8.2	-2.29542E-001	-4.94293E-008	0.00000E+000	-2.29550E-001	1.42223E-003	6	...........	-327.66
	41	8.4	-2.39433E-001	-5.01735E-008	0.00000E+000	-2.39550E-001	1.41997E-003	6	...........	-327.66
	42	8.6	-2.49531E-001	-5.09958E-008	0.00000E+000	-2.49550E-001	1.41303E-003	6	...........	-327.66
	43	8.8	-2.59518E-001	-5.17463E-008	0.00000E+000	-2.59550E-001	1.41698E-003	6	...........	-327.66
	44	9	-2.69440E-001	-5.25355E-008	0.00000E+000	-2.69550E-001	1.43314E-003	6	...........	-327.66
	45	9.2	-2.79480E-001	-5.32436E-008	0.00000E+000	-2.79550E-001	1.42250E-003	6	...........	-327.66
	46	9.4	-2.89565E-001	-5.41620E-008	0.00000E+000	-2.89550E-001	1.42670E-003	6	...........	-327.66
	47	9.6	-2.99516E-001	-5.49046E-008	0.00000E+000	-2.99550E-001	1.42085E-003	6	...........	-327.66
	48	9.8	-3.09554E-001	-5.57873E-008	0.00000E+000	-3.09550E-001	1.42545E-003	6	...........	-327.66
	49	10	-3.19432E-001	-5.66104E-008	0.00000E+000	-3.19550E-001	1.41525E-003	6	...........	-327.66
	50	10.2	-3.29567E-001	-5.75544E-008	0.00000E+000	-3.29550E-001	1.42040E-003	6	...........	-327.66
	51	10.4	-3.39535E-001	-5.84753E-008	0.00000E+000	-3.39550E-001	1.41675E-003	6	...........	-327.66
	52	10.6	-3.49494E-001	-5.93613E-008	0.00000E+000	-3.49550E-001	1.41345E-003	6	...........	-327.66
	53	10.8	-3.59503E-001	-6.02699E-008	0.00000E+000	-3.59550E-001	1.42825E-003	6	...........	-327.66
	54	11	-3.69534E-001	-6.12477E-008	0.00000E+000	-3.69550E-001	1.41923E-003	6	...........	-327.66
	55	11.2	-3.79539E-001	-6.22041E-008	0.00000E+000	-3.79550E-001	1.43302E-003	6	...........	-327.66
	56	11.4	-3.89564E-001	-6.31782E-008	0.00000E+000	-3.89550E-001	1.42065E-003	6	...........	-327.66
	57	11.6	-3.99465E-001	-6.40571E-008	0.00000E+000	-3.99550E-001	1.41503E-003	6	...........	-327.66
	58	11.8	-4.09565E-001	-6.50874E-008	0.00000E+000	-4.09550E-001	1.41191E-003	6	...........	-327.66
	59	12	-4.19391E-001	-6.59729E-008	0.00000E+000	-4.19550E-001	1.42258E-003	6	...........	-327.66
	60	12.2	-4.29461E-001	-6.70271E-008	0.00000E+000	-4.29550E-001	1.42504E-003	6	...........	-327.66
	61	12.4	-4.39387E-001	-6.78331E-008	0.00000E+000	-4.39550E-001	1.43044E-003	6	...........	-327.66
	62	12.6	-4.49425E-001	-6.89078E-008	0.00000E+000	-4.49550E-001	1.43230E-003	6	...........	-327.66
	63	12.8	-4.59448E-001	-6.98711E-008	0.00000E+000	-4.59550E-001	1.42382E-003	6	...........	-327.66
	64	13	-4.69496E-001	-7.10051E-008	0.00000E+000	-4.69550E-001	1.43259E-003	6	...........	-327.66
	65	13.2	-4.79390E-001	-7.19208E-008	0.00000E+000	-4.79550E-001	1.42460E-003	6	...........	-327.66
	66	13.4	-4.89530E-001	-7.29623E-008	0.00000E+000	-4.89550E-001	1.42567E-003	6	...........	-327.66
	67	13.6	-4.99414E-001	-7.40615E-008	0.00000E+000	-4.99550E-001	1.42555E-003	6	...........	-327.66
	68	13.8	-5.09494E-001	-7.52556E-008	0.00000E+000	-5.09550E-001	1.42130E-003	6	...........	-327.66
	69	14	-5.19373E-001	-7.63452E-008	0.00000E+000	-5.19550E-001	1.43451E-003	6	...........	-327.66
	70	14.2	-5.29459E-001	-7.73869E-008	0.00000E+000	-5.29550E-001	1.42307E-003	6	...........	-327.66
	71	14.4	-5.39476E-001	-7.84799E-008	0.00000E+000	-5.39550E-001	1.43559E-003	6	...........	-327.66
	72	14.6	-5.49439E-001	-7.97017E-008	0.00000E+000	-5.49550E-001	1.42957E-003	6	...........	-327.66
	73	14.8	-5.59449E-001	-8.08391E-008	0.00000E+000	-5.59550E-001	1.42028E-003	6	...........	-327.66
	74	15	-5.69506E-001	-8.20107E-008	0.00000E+000	-5.69550E-001	1.42750E-003	6	...........	-327.66
	75	15.2	-5.79420E-001	-8.30629E-008	0.00000E+000	-5.79550E-001	1.41568E-003	6	...........	-327.66
	76	15.4	-5.89522E-001	-8.42332E-008	0.00000E+000	-5.89550E-001	1.43004E-003	6	...........	-327.66
	77	15.6	-5.99293E-001	-8.51439E-008	0.00000E+000	-5.99550E-001	1.42685E-003	6	...........	-327.66
	78	15.8	-6.09504E-001	-8.62656E-008	0.00000E+000	-6.09550E-001	1.42725E-003	6	...........	-327.66
	79	16	-6.19403E-001	-8.71143E-008	0.00000E+000	-6.19550E-001	1.43015E-003	6	...........	-327.66
	80	16.2	-6.29369E-001	-8.80658E-008	0.00000E+000	-6.29550E-001	1.43207E-003	6	...........	-327.66
	81	16.4	-6.39371E-001	-8.87946E-008	0.00000E+000	-6.39550E-001	1.42003E-003	6	...........	-327.66
	82	16.6	-6.49509E-001	-8.94836E-008	0.00000E+000	-6.49550E-001	1.41695E-003	6	...........	-327.66
	83	16.8	-6.59417E-001	-9.00278E-008	0.00000E+000	-6.59550E-001	1.42495E-003	6	...........	-327.66
	84	17	-6.69479E-001	-9.03070E-008	0.00000E+000	-6.69550E-001	1.41637E-003	6	...........	-327.66
	85	17.2	-6.79361E-001	-9.03497E-008	0.00000E+000	-6.79550E-001	1.43047E-003	6	...........	-327.66
	86	17.4	-6.89486E-001	-9.00944E-008	0.00000E+000	-6.89550E-001	1.42327E-003	6	...........	-327.66
	87	17.6	-6.99400E-001	-8.93560E-008	0.00000E+000	-6.99550E-001	1.42885E-003	6	...........	-327.66
	88	17.8	-7.09428E-001	-8.81033E-008	0.00000E+000	-7.09550E-001	1.42509E-003	6	...........	-327.66
	89	18	-7.19382E-001	-8.61592E-008	0.00000E+000	-7.19550E-001	1.42297E-003	6	...........	-327.66
	90	18.2	-7.29515E-001	-8.38014E-008	0.00000E+000	-7.29550E-001	1.42805E-003	6	...........	-327.66
	91	18.4	-7.39469E-001	-8.09320E-008	0.00000E+000	-7.39550E-001	1.42474E-003	6	...........	-327.66
	92	18.6	-7.49518E-001	-7.75261E-008	0.00000E+000	-7.49550E-001	1.43107E-003	6	...........	-327.66
	93	18.8	-7.59395E-001	-7.36129E-008	0.00000E+000	-7.59550E-001	1.43175E-003	6	...........	-327.66
	94	19	-7.69501E-001	-6.96072E-008	0.00000E+000	-7.69550E-001	1.42800E-003	6	...........	-327.66
	95	19.2	-7.79260E-001	-6.53686E-008	0.00000E+000	-7.79550E-001	1.43712E-003	6	...........	-327.66
	96	19.4	-7.89463E-001	-6.11523E-008	0.00000E+000	-7.89550E-001	1.42735E-003	6	...........	-327.66
	97	19.6	-7.99355E-001	-5.68983E-008	0.00000E+000	-7.99550E-001	1.42442E-003	6	...........	-327.66
	98	19.8	-8.09398E-001	-5.28253E-008	0.00000E+000	-8.09550E-001	1.42048E-003	6	...........	-327.66
	99	20	-8.19439E-001	-4.89820E-008	0.00000E+000	-8.19550E-001	1.42730E-003	6	...........	-327.66
	100	20.2	-8.29466E-001	-4.54429E-008	0.00000E+000	-8.29550E-001	1.42740E-003	6	...........	-327.66
	101	20.4	-8.39407E-001	-4.22000E-008	0.00000E+000	-8.39550E-001	1.42945E-003	6	...........	-327.66
	102	20.6	-8.49506E-001	-3.91226E-008	0.00000E+000	-8.49550E-001	1.43287E-003	6	...........	-327.66
	103	20.8	-8.59366E-001	-3.65627E-008	0.00000E+000	-8.59550E-001	1.42760E-003	6	...........	-327.66
	104	21	-8.69456E-001	-3.44600E-008	0.00000E+000	-8.69550E-001	1.43224E-003	6	...........	-327.66
	105	21.2	-8.79295E-001	-3.24202E-008	0.00000E+000	-8.79550E-001	1.42215E-003	6	...........	-327.66
	106	21.4	-8.89429E-001	-3.06451E-008	0.00000E+000	-8.89550E-001	1.41955E-003	6	...........	-327.66
	107	21.6	-8.99397E-001	-2.89642E-008	0.00000E+000	-8.99550E-001	1.41968E-003	6	...........	-327.66
	108	21.8	-8.89492E-001	-2.48366E-008	0.00000E+000	-8.89550E-001	1.41763E-003	6	...........	-327.66
	109	22	-8.79403E-001	-2.26278E-008	0.00000E+000	-8.79550E-001	1.42140E-003	6	...........	-327.66
	110	22.2	-8.69528E-001	-2.09692E-008	0.00000E+000	-8.69550E-001	1.42298E-003	6	...........	-327.66
	111	22.4	-8.59497E-001	-1.93739E-008	0.00000E+000	-8.59550E-001	1.42935E-003	6	...........	-327.66
	112	22.6	-8.49521E-001	-1.80229E-008	0.00000E+000	-8.49550E-001	1.41822E-003	6	...........	-327.66
	113	22.8	-8.39496E-001	-1.65829E-008	0.00000E+000	-8.39550E-001	1.41755E-003	6	...........	-327.66
	114	23	-8.29546E-001	-1.51700E-008	0.00000E+000	-8.29550E-001	1.41505E-003	6	...........	-327.66
	115	23.2	-8.19539E-001	-1.36107E-008	0.00000E+000	-8.19550E-001	1.42173E-003	6	...........	-327.66
	116	23.4	-8.09472E-001	-1.19287E-008	0.00000E+000	-8.09550E-001	1.41156E-003	6	...........	-327.66
	117	23.6	-7.99459E-001	-1.00298E-008	0.00000E+000	-7.99550E-001	1.41593E-003	6	...........	-327.66
	118	23.8	-7.89520E-001	-7.96119E-009	0.00000E+000	-7.89550E-001	1.42544E-003	6	...........	-327.66
	119	24	-7.79357E-001	-5.41173E-009	0.00000E+000	-7.79550E-001	1.42544E-003	6	...........	-327.66
	120	24.2	-7.69533E-001	-2.61919E-009	0.00000E+000	-7.69550E-001	1.42645E-003	6	...........	-327.66
	121	24.4	-7.59461E-001	6.69439E-010	0.00000E+000	-7.59550E-001	1.42470E-003	6	...........	-327.66
	122	24.6	-7.49548E-001	4.14507E-009	0.00000E+000	-7.49550E-001	1.41902E-003	6	...........	-327.66
	123	24.8	-7.39538E-001	8.08272E-009	0.00000E+000	-7.39550E-001	1.42449E-003	6	...........	-327.66
	124	25	-7.29542E-001	1.23123E-008	0.00000E+000	-7.29550E-001	1.42052E-003	6	...........	-327.66
	125	25.2	-7.19458E-001	1.66271E-008	0.00000E+000	-7.19550E-001	1.42804E-003	6	...........	-327.66
	126	25.4	-7.09506E-001	2.06023E-008	0.00000E+000	-7.09550E-001	1.42854E-003	6	...........	-327.66
	127	25.6	-6.99493E-001	2.40263E-008	0.00000E+000	-6.99550E-001	1.43092E-003	6	...........	-327.66
	128	25.8	-6.89533E-001	2.65820E-008	0.00000E+000	-6.89550E-001	1.42185E-003	6	...........	-327.66
	129	26	-6.79420E-001	2.82210E-008	0.00000E+000	-6.79550E-001	1.42640E-003	6	...........	-327.66
	130	26.2	-6.69513E-001	2.87829E-008	0.00000E+000	-6.69550E-001	1.42073E-003	6	...........	-327.66
	131	26.4	-6.59524E-001	2.89625E-008	0.00000E+000	-6.59550E-001	1.42824E-003	6	...........	-327.66
	132	26.6	-6.49530E-001	2.90179E-008	0.00000E+000	-6.49550E-001	1.42212E-003	6	...........	-327.66
	133	26.8	-6.39469E-001	2.90730E-008	0.00000E+000	-6.39550E-001	1.41733E-003	6	...........	-327.66
	134	27	-6.29433E-001	2.91455E-008	0.00000E+000	-6.29550E-001	1.43507E-003	6	...........	-327.66
	135	27.2	-6.19509E-001	2.94045E-008	0.00000E+000	-6.19550E-001	1.42790E-003	6	...........	-327.66
	136	27.4	-6.09575E-001	2.95624E-008	0.00000E+000	-6.09550E-001	1.42777E-003	6	...........	-327.66
	137	27.6	-5.99371E-001	2.99416E-008	0.00000E+000	-5.99550E-001	1.43532E-003	6	...........	-327.66
	138	27.8	-5.89565E-001	3.02213E-008	0.00000E+000	-5.89550E-001	1.42015E-003	6	...........	-327.66
	139	28	-5.79515E-001	3.06731E-008	0.00000E+000	-5.79550E-001	1.42472E-003	6	...........	-327.66
	140	28.2	-5.69567E-001	3.10541E-008	0.00000E+000	-5.69550E-001	1.41602E-003	6	...........	-327.66
	141	28.4	-5.59536E-001	3.15314E-008	0.00000E+000	-5.59550E-001	1.42760E-003	6	...........	-327.66
	142	28.6	-5.49553E-001	3.19408E-008	0.00000E+000	-5.49550E-001	1.42729E-003	6	...........	-327.66
	143	28.8	-5.39574E-001	3.24448E-008	0.00000E+000	-5.39550E-001	1.43244E-003	6	...........	-327.66
	144	29	-5.29557E-001	3.29306E-008	0.00000E+000	-5.29550E-001	1.42317E-003	6	...........	-327.66
	145	29.2	-5.19473E-001	3.34400E-008	0.00000E+000	-5.19550E-001	1.42834E-003	6	...........	-327.66
	146	29.4	-5.09579E-001	3.39710E-008	0.00000E+000	-5.09550E-001	1.42385E-003	6	...........	-327.66
	147	29.6	-4.99519E-001	3.46514E-008	0.00000E+000	-4.99550E-001	1.42582E-003	6	...........	-327.66
	148	29.8	-4.89575E-001	3.52054E-008	0.00000E+000	-4.89550E-001	1.42302E-003	6	...........	-327.66
	149	30	-4.79468E-001	3.58276E-008	0.00000E+000	-4.79550E-001	1.43099E-003	6	...........	-327.66
	150	30.2	-4.69572E-001	3.63141E-008	0.00000E+000	-4.69550E-001	1.42592E-003	6	...........	-327.66
	151	30.4	-4.59569E-001	3.70588E-008	0.00000E+000	-4.59550E-001	1.42824E-003	6	...........	-327.66
	152	30.6	-4.49496E-001	3.77264E-008	0.00000E+000	-4.49550E-001	1.42774E-003	6	...........	-327.66
	153	30.8	-4.39439E-001	3.84156E-008	0.00000E+000	-4.39550E-001	1.42200E-003	6	...........	-327.66
	154	31	-4.29550E-001	3.89929E-008	0.00000E+000	-4.29550E-001	1.42520E-003	6	...........	-327.66
	155	31.2	-4.19504E-001	3.97353E-008	0.00000E+000	-4.19550E-001	1.42350E-003	6	...........	-327.66
	156	31.4	-4.09606E-001	4.03727E-008	0.00000E+000	-4.09550E-001	1.41962E-003	6	...........	-327.66
	157	31.6	-3.99539E-001	4.10976E-008	0.00000E+000	-3.99550E-001	1.41585E-003	6	...........	-327.66
	158	31.8	-3.89584E-001	4.16689E-008	0.00000E+000	-3.89550E-001	1.42972E-003	6	...........	-327.66
	159	32	-3.79583E-001	4.23507E-008	0.00000E+000	-3.79550E-001	1.43025E-003	6	...........	-327.66
	160	32.2	-3.69588E-001	4.30364E-008	0.00000E+000	-3.69550E-001	1.42732E-003	6	...........	-327.66
	161	32.4	-3.59551E-001	4.36767E-008	0.00000E+000	-3.59550E-001	1.42645E-003	6	...........	-327.66
	162	32.6	-3.49538E-001	4.42346E-008	0.00000E+000	-3.49550E-001	1.42145E-003	6	...........	-327.66
	163	32.8	-3.39562E-001	4.47913E-008	0.00000E+000	-3.39550E-001	1.42882E-003	6	...........	-327.66
	164	33	-3.29604E-001	4.53359E-008	0.00000E+000	-3.29550E-001	1.41285E-003	6	...........	-327.66
	165	33.2	-3.19469E-001	4.58766E-008	0.00000E+000	-3.19550E-001	1.42372E-003	6	...........	-327.66
	166	33.4	-3.09590E-001	4.62659E-008	0.00000E+000	-3.09550E-001	1.42437E-003	6	...........	-327.66
	167	33.6	-2.99567E-001	4.67652E-008	0.00000E+000	-2.99550E-001	1.43279E-003	6	...........	-327.66
	168	33.8	-2.89597E-001	4.71166E-008	0.00000E+000	-2.89550E-001	1.42849E-003	6	...........	-327.66
	169	34	-2.79534E-001	4.76096E-008	0.00000E+000	-2.79550E-001	1.42885E-003	6	...........	-327.66
	170	34.2	-2.69470E-001	4.79152E-008	0.00000E+000	-2.69550E-001	1.42867E-003	6	...........	-327.66
	171	34.4	-2.59574E-001	4.83193E-008	0.00000E+000	-2.59550E-001	1.41657E-003	6	...........	-327.66
	172	34.6	-2.49592E-001	4.85581E-008	0.00000E+000	-2.49550E-001	1.41432E-003	6	...........	-327.66
	173	34.8	-2.39487E-001	4.89283E-008	0.00000E+000	-2.39550E-001	1.42395E-003	6	...........	-327.66
	174	35	-2.29584E-001	4.92026E-008	0.00000E+000	-2.29550E-001	1.43147E-003	6	...........	-327.66
	175	35.2	-2.19524E-001	4.96062E-008	0.00000E+000	-2.19550E-001	1.43531E-003	6	...........	-327.66
	176	35.4	-2.09590E-001	4.98892E-008	0.00000E+000	-2.09550E-001	1.42614E-003	6	...........	-327.66
	177	35.6	-1.99595E-001	5.01195E-008	0.00000E+000	-1.99550E-001	1.42810E-003	6	...........	-327.66
	178	35.8	-1.89570E-001	5.02870E-008	0.00000E+000	-1.89550E-001	1.42705E-003	6	...........	-327.66
	179	36	-1.79604E-001	5.06194E-008	0.00000E+000	-1.79550E-001	1.42223E-003	6	...........	-327.66
	180	36.2	-1.69581E-001	5.08890E-008	0.00000E+000	-1.69550E-001	1.41810E-003	6	...........	-327.66
	181	36.4	-1.59507E-001	5.10592E-008	0.00000E+000	-1.59550E-001	1.42132E-003	6	...........	-327.66
	182	36.6	-1.49608E-001	5.11087E-008	0.00000E+000	-1.49550E-001	1.41917E-003	6	...........	-327.66
	183	36.8	-1.39512E-001	5.14815E-008	0.00000E+000	-1.39550E-001	1.42550E-003	6	...........	-327.66
	184	37	-1.29613E-001	5.16873E-008	0.00000E+000	-1.29550E-001	1.42477E-003	6	...........	-327.66
	185	37.2	-1.19562E-001	5.19650E-008	0.00000E+000	-1.19550E-001	1.42614E-003	6	...........	-327.66
	186	37.4	-1.09610E-001	5.18245E-008	0.00000E+000	-1.09550E-001	1.41562E-003	6	...........	-327.66
	187	37.6	-9.96049E-002	5.20391E-008	0.00000E+000	-9.95500E-002	1.41330E-003	6	...........	-327.66
	188	37.8	-8.96061E-002	5.23650E-008	0.00000E+000	-8.95500E-002	1.41660E-003	6	...........	-327.66
	189	38	-7.95389E-002	5.25494E-008	0.00000E+000	-7.95500E-002	1.41231E-003	6	...........	-327.66
	190	38.2	-6.95725E-002	5.25987E-008	0.00000E+000	-6.95500E-002	1.42604E-003	6	...........	-327.66
	191	38.4	-5.95857E-002	5.26486E-008	0.00000E+000	-5.95500E-002	1.42445E-003	6	...........	-327.66
	192	38.6	-4.96205E-002	5.28136E-008	0.00000E+000	-4.95500E-002	1.42525E-003	6	...........	-327.66
	193	38.8	-3.95352E-002	5.30304E-008	0.00000E+000	-3.95500E-002	1.42472E-003	6	...........	-327.66
	194	39	-2.96070E-002	5.30384E-008	0.00000E+000	-2.95500E-002	1.41638E-003	6	...........	-327.66
	195	39.2	-1.96064E-002	5.31669E-008	0.00000E+000	-1.95500E-002	1.41857E-003	6	...........	-327.66
	196	39.4	-9.61303E-003	5.32948E-008	0.00000E+000	-9.55001E-003	1.41722E-003	6	...........	-327.66
	197	39.6	4.63638E-004	5.34262E-008	0.00000E+000	4.49985E-004	1.41662E-003	6	...........	-327.66
	198	39.8	1.04811E-002	5.34801E-008	0.00000E+000	1.04500E-002	1.42512E-003	6	...........	-327.66
	199	40	2.04359E-002	5.35927E-008	0.00000E+000	2.04500E-002	1.42502E-003	6	...........	-327.66
	200	40.2	3.04137E-002	5.36995E-008	0.00000E+000	3.04500E-002	1.42822E-003	6	...........	-327.66
	201	40.4	4.02242E-002	5.38415E-008	0.00000E+000	4.04500E-002	1.42985E-003	6	...........	-327.66
	202	40.6	5.04237E-002	5.38614E-008	0.00000E+000	5.04500E-002	1.41845E-003	6	...........	-327.66
	203	40.8	6.04144E-002	5.40407E-008	0.00000E+000	6.04500E-002	1.42172E-003	6	...........	-327.66
	204	41	7.04274E-002	5.41391E-008	0.00000E+000	7.04500E-002	1.41735E-003	6	...........	-327.66
	205	41.2	8.04210E-002	5.43813E-008	0.00000E+000	8.04500E-002	1.42025E-003	6	...........	-327.66
	206	41.4	9.04282E-002	5.44631E-008	0.00000E+000	9.04500E-002	1.42363E-003	6	...........	-327.66
	207	41.6	1.00422E-001	5.46105E-008	0.00000E+000	1.00450E-001	1.42767E-003	6	...........	-327.66
	208	41.8	1.10416E-001	5.48235E-008	0.00000E+000	1.10450E-001	1.41316E-003	6	...........	-327.66
	209	42	1.20502E-001	5.50210E-008	0.00000E+000	1.20450E-001	1.42323E-003	6	...........	-327.66
	210	42.2	1.30428E-001	5.51160E-008	0.00000E+000	1.30450E-001	1.41046E-003	6	...........	-327.66
	211	42.4	1.40448E-001	5.53113E-008	0.00000E+000	1.40450E-001	1.42302E-003	6	...........	-327.66
	212	42.6	1.50433E-001	5.54982E-008	0.00000E+000	1.50450E-001	1.41348E-003	6	...........	-327.66
	213	42.8	1.60453E-001	5.57350E-008	0.00000E+000	1.60450E-001	1.41488E-003	6	...........	-327.66
	214	43	1.70448E-001	5.57335E-008	0.00000E+000	1.70450E-001	1.42150E-003	6	...........	-327.66
	215	43.2	1.80423E-001	5.59338E-008	0.00000E+000	1.80450E-001	1.41853E-003	6	...........	-327.66
	216	43.4	1.90418E-001	5.60138E-008	0.00000E+000	1.90450E-001	1.42260E-003	6	...........	-327.66
	217	43.6	2.00471E-001	5.61773E-008	0.00000E+000	2.00450E-001	1.42645E-003	6	...........	-327.66
	218	43.8	2.10400E-001	5.61560E-008	0.00000E+000	2.10450E-001	1.41443E-003	6	...........	-327.66
	219	44	2.20446E-001	5.62995E-008	0.00000E+000	2.20450E-001	1.41136E-003	6	...........	-327.66
	220	44.2	2.30408E-001	5.63511E-008	0.00000E+000	2.30450E-001	1.41143E-003	6	...........	-327.66
	221	44.4	2.40409E-001	5.65393E-008	0.00000E+000	2.40450E-001	1.41745E-003	6	...........	-327.66
	222	44.6	2.50410E-001	5.65528E-008	0.00000E+000	2.50450E-001	1.41978E-003	6	...........	-327.66
	223	44.8	2.60390E-001	5.66221E-008	0.00000E+000	2.60450E-001	1.42577E-003	6	...........	-327.66
	224	45	2.70285E-001	5.68324E-008	0.00000E+000	2.70450E-001	1.41792E-003	6	...........	-327.66
	225	45.2	2.80403E-001	5.69899E-008	0.00000E+000	2.80450E-001	1.42497E-003	6	...........	-327.66
	226	45.4	2.90405E-001	5.70544E-008	0.00000E+000	2.90450E-001	1.41755E-003	6	...........	-327.66
	227	45.6	3.00411E-001	5.71910E-008	0.00000E+000	3.00450E-001	1.42255E-003	6	...........	-327.66
	228	45.8	3.10375E-001	5.73670E-008	0.00000E+000	3.10450E-001	1.41200E-003	6	...........	-327.66
	229	46	3.20435E-001	5.75756E-008	0.00000E+000	3.20450E-001	1.41186E-003	6	...........	-327.66
	230	46.2	3.30408E-001	5.77040E-008	0.00000E+000	3.30450E-001	1.42597E-003	6	...........	-327.66
	231	46.4	3.40401E-001	5.79498E-008	0.00000E+000	3.40450E-001	1.42529E-003	6	...........	-327.66
	232	46.6	3.50386E-001	5.81750E-008	0.00000E+000	3.50450E-001	1.42519E-003	6	...........	-327.66
	233	46.8	3.60410E-001	5.85409E-008	0.00000E+000	3.60450E-001	1.41693E-003	6	...........	-327.66
	234	47	3.70429E-001	5.87394E-008	0.00000E+000	3.70450E-001	1.41778E-003	6	...........	-327.66
	235	47.2	3.80406E-001	5.90329E-008	0.00000E+000	3.80450E-001	1.41422E-003	6	...........	-327.66
	236	47.4	3.90377E-001	5.93731E-008	0.00000E+000	3.90450E-001	1.41181E-003	6	...........	-327.66
	237	47.6	4.00460E-001	5.97998E-008	0.00000E+000	4.00450E-001	1.41933E-003	6	...........	-327.66
	238	47.8	4.10385E-001	6.01426E-008	0.00000E+000	4.10450E-001	1.41230E-003	6	...........	-327.66
	239	48	4.20389E-001	6.06016E-008	0.00000E+000	4.20450E-001	1.42449E-003	6	...........	-327.66
	240	48.2	4.30383E-001	6.09515E-008	0.00000E+000	4.30450E-001	1.41700E-003	6	...........	-327.66
	241	48.4	4.40383E-001	6.14148E-008	0.00000E+000	4.40450E-001	1.42544E-003	6	...........	-327.66
	242	48.6	4.50390E-001	6.18457E-008	0.00000E+000	4.50450E-001	1.42015E-003	6	...........	-327.66
	243	48.8	4.60391E-001	6.23060E-008	0.00000E+000	4.60450E-001	1.42218E-003	6	...........	-327.66
	244	49	4.70369E-001	6.28290E-008	0.00000E+000	4.70450E-001	1.41425E-003	6	...........	-327.66
	245	49.2	4.80411E-001	6.33295E-008	0.00000E+000	4.80450E-001	1.41882E-003	6	...........	-327.66
	246	49.4	4.90381E-001	6.37669E-008	0.00000E+000	4.90450E-001	1.42587E-003	6	...........	-327.66
	247	49.6	5.00433E-001	6.43908E-008	0.00000E+000	5.00450E-001	1.42327E-003	6	...........	-327.66
	248	49.8	5.10368E-001	6.49090E-008	0.00000E+000	5.10450E-001	1.42539E-003	6	...........	-327.66
	249	50	5.20390E-001	6.55215E-008	0.00000E+000	5.20450E-001	1.42775E-003	6	...........	-327.66
	250	50.2	5.30389E-001	6.60410E-008	0.00000E+000	5.30450E-001	1.42489E-003	6	...........	-327.66
	251	50.4	5.40387E-001	6.67027E-008	0.00000E+000	5.40450E-001	1.42287E-003	6	...........	-327.66
	252	50.6	5.50388E-001	6.73495E-008	0.00000E+000	5.50450E-001	1.42100E-003	6	...........	-327.66
	253	50.8	5.60414E-001	6.81603E-008	0.00000E+000	5.60450E-001	1.42017E-003	6	...........	-327.66
	254	51	5.70385E-001	6.88625E-008	0.00000E+000	5.70450E-001	1.42090E-003	6	...........	-327.66
	255	51.2	5.80406E-001	6.97018E-008	0.00000E+000	5.80450E-001	1.42200E-003	6	...........	-327.66
	256	51.4	5.90361E-001	7.06136E-008	0.00000E+000	5.90450E-001	1.42243E-003	6	...........	-327.66
	257	51.6	6.00399E-001	7.16670E-008	0.00000E+000	6.00450E-001	1.42692E-003	6	...........	-327.66
CURVE2	TABLE
	Pt	T	Vf	Im	Vu	Sig	Ach	IERange	Over	Temp
	#	s	V vs. Ref.	A	V	V	V	#	bits	deg C
	258	51.8	5.89978E-001	-8.45133E-009	0.00000E+000	5.90000E-001	1.42112E-003	6	...........	-327.66
	259	52	5.79992E-001	-1.45834E-008	0.00000E+000	5.80000E-001	1.42964E-003	6	...........	-327.66
	260	52.2	5.69986E-001	-1.89682E-008	0.00000E+000	5.70000E-001	1.41300E-003	6	...........	-327.66
	261	52.4	5.59981E-001	-2.21526E-008	0.00000E+000	5.60000E-001	1.41653E-003	6	...........	-327.66
	262	52.6	5.49991E-001	-2.44587E-008	0.00000E+000	5.50000E-001	1.41570E-003	6	...........	-327.66
	263	52.8	5.39998E-001	-2.62330E-008	0.00000E+000	5.40000E-001	1.42037E-003	6	...........	-327.66
	264	53	5.30008E-001	-2.75917E-008	0.00000E+000	5.30000E-001	1.41703E-003	6	...........	-327.66
	265	53.2	5.19974E-001	-2.87233E-008	0.00000E+000	5.20000E-001	1.41712E-003	6	...........	-327.66
	266	53.4	5.09976E-001	-2.96633E-008	0.00000E+000	5.10000E-001	1.42368E-003	6	...........	-327.66
	267	53.6	5.00011E-001	-3.04704E-008	0.00000E+000	5.00000E-001	1.41665E-003	6	...........	-327.66
	268	53.8	4.89981E-001	-3.11487E-008	0.00000E+000	4.90000E-001	1.41146E-003	6	...........	-327.66
	269	54	4.79950E-001	-3.18144E-008	0.00000E+000	4.80000E-001	1.41422E-003	6	...........	-327.66
	270	54.2	4.69981E-001	-3.23156E-008	0.00000E+000	4.70000E-001	1.41937E-003	6	...........	-327.66
	271	54.4	4.59997E-001	-3.28387E-008	0.00000E+000	4.60000E-001	1.41542E-003	6	...........	-327.66
	272	54.6	4.49992E-001	-3.31836E-008	0.00000E+000	4.50000E-001	1.41185E-003	6	...........	-327.66
	273	54.8	4.39944E-001	-3.36233E-008	0.00000E+000	4.40000E-001	1.42175E-003	6	...........	-327.66
	274	55	4.29991E-001	-3.39495E-008	0.00000E+000	4.30000E-001	1.42424E-003	6	...........	-327.66
	275	55.2	4.20042E-001	-3.43238E-008	0.00000E+000	4.20000E-001	1.41455E-003	6	...........	-327.66
	276	55.4	4.09985E-001	-3.45652E-008	0.00000E+000	4.10000E-001	1.41153E-003	6	...........	-327.66
	277	55.6	3.99993E-001	-3.48948E-008	0.00000E+000	4.00000E-001	1.41356E-003	6	...........	-327.66
	278	55.8	3.89993E-001	-3.51631E-008	0.00000E+000	3.90000E-001	1.42082E-003	6	...........	-327.66
	279	56	3.80002E-001	-3.54108E-008	0.00000E+000	3.80000E-001	1.41647E-003	6	...........	-327.66
	280	56.2	3.70034E-001	-3.55978E-008	0.00000E+000	3.70000E-001	1.42217E-003	6	...........	-327.66
	281	56.4	3.59984E-001	-3.58757E-008	0.00000E+000	3.60000E-001	1.42444E-003	6	...........	-327.66
	282	56.6	3.50020E-001	-3.60779E-008	0.00000E+000	3.50000E-001	1.42769E-003	6	...........	-327.66
	283	56.8	3.40015E-001	-3.62595E-008	0.00000E+000	3.40000E-001	1.42525E-003	6	...........	-327.66
	284	57	3.30017E-001	-3.64017E-008	0.00000E+000	3.30000E-001	1.42370E-003	6	...........	-327.66
	285	57.2	3.19990E-001	-3.66550E-008	0.00000E+000	3.20000E-001	1.41988E-003	6	...........	-327.66
	286	57.4	3.09996E-001	-3.68427E-008	0.00000E+000	3.10000E-001	1.42038E-003	6	...........	-327.66
	287	57.6	3.00002E-001	-3.70789E-008	0.00000E+000	3.00000E-001	1.42512E-003	6	...........	-327.66
	288	57.8	2.90014E-001	-3.71507E-008	0.00000E+000	2.90000E-001	1.42699E-003	6	...........	-327.66
	289	58	2.79983E-001	-3.74183E-008	0.00000E+000	2.80000E-001	1.43000E-003	6	...........	-327.66
	290	58.2	2.70081E-001	-3.75794E-008	0.00000E+000	2.70000E-001	1.42163E-003	6	...........	-327.66
	291	58.4	2.60006E-001	-3.78192E-008	0.00000E+000	2.60000E-001	1.42889E-003	6	...........	-327.66
	292	58.6	2.50056E-001	-3.78884E-008	0.00000E+000	2.50000E-001	1.42058E-003	6	...........	-327.66
	293	58.8	2.40006E-001	-3.81134E-008	0.00000E+000	2.40000E-001	1.41785E-003	6	...........	-327.66
	294	59	2.30001E-001	-3.82858E-008	0.00000E+000	2.30000E-001	1.42363E-003	6	...........	-327.66
	295	59.2	2.20009E-001	-3.84639E-008	0.00000E+000	2.20000E-001	1.42205E-003	6	...........	-327.66
	296	59.4	2.10007E-001	-3.85963E-008	0.00000E+000	2.10000E-001	1.42790E-003	6	...........	-327.66
	297	59.6	2.00005E-001	-3.88041E-008	0.00000E+000	2.00000E-001	1.42077E-003	6	...........	-327.66
	298	59.8	1.90056E-001	-3.90023E-008	0.00000E+000	1.90000E-001	1.43002E-003	6	...........	-327.66
	299	60	1.80021E-001	-3.91951E-008	0.00000E+000	1.80000E-001	1.42065E-003	6	...........	-327.66
	300	60.2	1.70108E-001	-3.93476E-008	0.00000E+000	1.70000E-001	1.42579E-003	6	...........	-327.66
	301	60.4	1.60011E-001	-3.95236E-008	0.00000E+000	1.60000E-001	1.42083E-003	6	...........	-327.66
	302	60.6	1.50031E-001	-3.96384E-008	0.00000E+000	1.50000E-001	1.42132E-003	6	...........	-327.66
	303	60.8	1.40098E-001	-3.98670E-008	0.00000E+000	1.40000E-001	1.43404E-003	6	...........	-327.66
	304	61	1.30058E-001	-3.99897E-008	0.00000E+000	1.30000E-001	1.42384E-003	6	...........	-327.66
	305	61.2	1.20006E-001	-4.02456E-008	0.00000E+000	1.20000E-001	1.43714E-003	6	...........	-327.66
	306	61.4	1.10025E-001	-4.03924E-008	0.00000E+000	1.10000E-001	1.43429E-003	6	...........	-327.66
	307	61.6	1.00012E-001	-4.06383E-008	0.00000E+000	1.00000E-001	1.42965E-003	6	...........	-327.66
	308	61.8	9.01287E-002	-4.07823E-008	0.00000E+000	9.00000E-002	1.42720E-003	6	...........	-327.66
	309	62	7.99955E-002	-4.10375E-008	0.00000E+000	8.00000E-002	1.41630E-003	6	...........	-327.66
	310	62.2	7.00205E-002	-4.12579E-008	0.00000E+000	7.00000E-002	1.42452E-003	6	...........	-327.66
	311	62.4	6.00503E-002	-4.14174E-008	0.00000E+000	6.00000E-002	1.42083E-003	6	...........	-327.66
	312	62.6	5.00416E-002	-4.15900E-008	0.00000E+000	5.00000E-002	1.42914E-003	6	...........	-327.66
	313	62.8	4.00146E-002	-4.18337E-008	0.00000E+000	4.00000E-002	1.42280E-003	6	...........	-327.66
	314	63	3.00125E-002	-4.20895E-008	0.00000E+000	3.00000E-002	1.42937E-003	6	...........	-327.66
	315	63.2	2.00137E-002	-4.22966E-008	0.00000E+000	2.00000E-002	1.43137E-003	6	...........	-327.66
	316	63.4	1.00605E-002	-4.24383E-008	0.00000E+000	9.99999E-003	1.41982E-003	6	...........	-327.66
	317	63.6	-1.47568E-006	-4.27394E-008	0.00000E+000	-1.49012E-008	1.42242E-003	6	...........	-327.66
	318	63.8	-9.94762E-003	-4.28956E-008	0.00000E+000	-1.00000E-002	1.42709E-003	6	...........	-327.66
	319	64	-1.99471E-002	-4.32224E-008	0.00000E+000	-2.00000E-002	1.43601E-003	6	...........	-327.66
	320	64.2	-2.99578E-002	-4.33140E-008	0.00000E+000	-3.00000E-002	1.42779E-003	6	...........	-327.66
	321	64.4	-3.99339E-002	-4.36145E-008	0.00000E+000	-4.00000E-002	1.43320E-003	6	...........	-327.66
	322	64.6	-4.99942E-002	-4.38690E-008	0.00000E+000	-5.00000E-002	1.43302E-003	6	...........	-327.66
	323	64.8	-5.99774E-002	-4.41679E-008	0.00000E+000	-6.00000E-002	1.43992E-003	6	...........	-327.66
	324	65	-6.99388E-002	-4.43036E-008	0.00000E+000	-7.00000E-002	1.42722E-003	6	...........	-327.66
	325	65.2	-8.00031E-002	-4.45751E-008	0.00000E+000	-8.00000E-002	1.42235E-003	6	...........	-327.66
	326	65.4	-8.99477E-002	-4.48234E-008	0.00000E+000	-9.00000E-002	1.42909E-003	6	...........	-327.66
	327	65.6	-9.99778E-002	-4.50884E-008	0.00000E+000	-1.00000E-001	1.42449E-003	6	...........	-327.66
	328	65.8	-1.09961E-001	-4.52891E-008	0.00000E+000	-1.10000E-001	1.42967E-003	6	...........	-327.66
	329	66	-1.19976E-001	-4.56090E-008	0.00000E+000	-1.20000E-001	1.42950E-003	6	...........	-327.66
	330	66.2	-1.29999E-001	-4.58834E-008	0.00000E+000	-1.30000E-001	1.43904E-003	6	...........	-327.66
	331	66.4	-1.39951E-001	-4.61849E-008	0.00000E+000	-1.40000E-001	1.43821E-003	6	...........	-327.66
	332	66.6	-1.49988E-001	-4.64480E-008	0.00000E+000	-1.50000E-001	1.43084E-003	6	...........	-327.66
	333	66.8	-1.60001E-001	-4.68131E-008	0.00000E+000	-1.60000E-001	1.42944E-003	6	...........	-327.66
	334	67	-1.69964E-001	-4.70920E-008	0.00000E+000	-1.70000E-001	1.42667E-003	6	...........	-327.66
	335	67.2	-1.79992E-001	-4.74386E-008	0.00000E+000	-1.80000E-001	1.43582E-003	6	...........	-327.66
	336	67.4	-1.89863E-001	-4.77452E-008	0.00000E+000	-1.90000E-001	1.43664E-003	6	...........	-327.66
	337	67.6	-2.00008E-001	-4.81361E-008	0.00000E+000	-2.00000E-001	1.43719E-003	6	...........	-327.66
	338	67.8	-2.09975E-001	-4.83978E-008	0.00000E+000	-2.10000E-001	1.43397E-003	6	...........	-327.66
	339	68	-2.19896E-001	-4.88177E-008	0.00000E+000	-2.20000E-001	1.43421E-003	6	...........	-327.66
	340	68.2	-2.29964E-001	-4.91525E-008	0.00000E+000	-2.30000E-001	1.42557E-003	6	...........	-327.66
	341	68.4	-2.39996E-001	-4.96156E-008	0.00000E+000	-2.40000E-001	1.42565E-003	6	...........	-327.66
	342	68.6	-2.49972E-001	-5.00544E-008	0.00000E+000	-2.50000E-001	1.43317E-003	6	...........	-327.66
	343	68.8	-2.59977E-001	-5.05018E-008	0.00000E+000	-2.60000E-001	1.43122E-003	6	...........	-327.66
	344	69	-2.69906E-001	-5.08931E-008	0.00000E+000	-2.70000E-001	1.43561E-003	6	...........	-327.66
	345	69.2	-2.80004E-001	-5.14245E-008	0.00000E+000	-2.80000E-001	1.44578E-003	6	...........	-327.66
	346	69.4	-2.89955E-001	-5.19404E-008	0.00000E+000	-2.90000E-001	1.44261E-003	6	...........	-327.66
	347	69.6	-2.99964E-001	-5.25065E-008	0.00000E+000	-3.00000E-001	1.43471E-003	6	...........	-327.66
	348	69.8	-3.09961E-001	-5.30403E-008	0.00000E+000	-3.10000E-001	1.42965E-003	6	...........	-327.66
	349	70	-3.19992E-001	-5.36672E-008	0.00000E+000	-3.20000E-001	1.43374E-003	6	...........	-327.66
	350	70.2	-3.29985E-001	-5.42782E-008	0.00000E+000	-3.30000E-001	1.43766E-003	6	...........	-327.66
	351	70.4	-3.39988E-001	-5.49429E-008	0.00000E+000	-3.40000E-001	1.43779E-003	6	...........	-327.66
	352	70.6	-3.49951E-001	-5.54967E-008	0.00000E+000	-3.50000E-001	1.43637E-003	6	...........	-327.66
	353	70.8	-3.59989E-001	-5.62276E-008	0.00000E+000	-3.60000E-001	1.44271E-003	6	...........	-327.66
	354	71	-3.69854E-001	-5.68152E-008	0.00000E+000	-3.70000E-001	1.44196E-003	6	...........	-327.66
	355	71.2	-3.79977E-001	-5.74701E-008	0.00000E+000	-3.80000E-001	1.44949E-003	6	...........	-327.66
	356	71.4	-3.89942E-001	-5.79879E-008	0.00000E+000	-3.90000E-001	1.43129E-003	6	...........	-327.66
	357	71.6	-3.99958E-001	-5.85671E-008	0.00000E+000	-4.00000E-001	1.43384E-003	6	...........	-327.66
	358	71.8	-4.09964E-001	-5.91833E-008	0.00000E+000	-4.10000E-001	1.43444E-003	6	...........	-327.66
	359	72	-4.19950E-001	-5.97327E-008	0.00000E+000	-4.20000E-001	1.43961E-003	6	...........	-327.66
	360	72.2	-4.29928E-001	-6.02871E-008	0.00000E+000	-4.30000E-001	1.43305E-003	6	...........	-327.66
	361	72.4	-4.39981E-001	-6.08777E-008	0.00000E+000	-4.40000E-001	1.44036E-003	6	...........	-327.66
	362	72.6	-4.49890E-001	-6.14069E-008	0.00000E+000	-4.50000E-001	1.44436E-003	6	...........	-327.66
	363	72.8	-4.59948E-001	-6.20403E-008	0.00000E+000	-4.60000E-001	1.44001E-003	6	...........	-327.66
	364	73	-4.69818E-001	-6.25741E-008	0.00000E+000	-4.70000E-001	1.44666E-003	6	...........	-327.66
	365	73.2	-4.79927E-001	-6.31769E-008	0.00000E+000	-4.80000E-001	1.43929E-003	6	...........	-327.66
	366	73.4	-4.89934E-001	-6.37194E-008	0.00000E+000	-4.90000E-001	1.43284E-003	6	...........	-327.66
	367	73.6	-4.99861E-001	-6.43557E-008	0.00000E+000	-5.00000E-001	1.44076E-003	6	...........	-327.66
	368	73.8	-5.09891E-001	-6.48423E-008	0.00000E+000	-5.10000E-001	1.43701E-003	6	...........	-327.66
	369	74	-5.19980E-001	-6.55026E-008	0.00000E+000	-5.20000E-001	1.44463E-003	6	...........	-327.66
	370	74.2	-5.29911E-001	-6.59888E-008	0.00000E+000	-5.30000E-001	1.44032E-003	6	...........	-327.66
	371	74.4	-5.39942E-001	-6.66078E-008	0.00000E+000	-5.40000E-001	1.44628E-003	6	...........	-327.66
	372	74.6	-5.49819E-001	-6.70716E-008	0.00000E+000	-5.50000E-001	1.43099E-003	6	...........	-327.66
	373	74.8	-5.59956E-001	-6.76020E-008	0.00000E+000	-5.60000E-001	1.43172E-003	6	...........	-327.66
	374	75	-5.69853E-001	-6.81180E-008	0.00000E+000	-5.70000E-001	1.43265E-003	6	...........	-327.66
	375	75.2	-5.79846E-001	-6.86103E-008	0.00000E+000	-5.80000E-001	1.43767E-003	6	...........	-327.66
	376	75.4	-5.89900E-001	-6.90217E-008	0.00000E+000	-5.90000E-001	1.43949E-003	6	...........	-327.66
	377	75.6	-5.99905E-001	-6.95097E-008	0.00000E+000	-6.00000E-001	1.44691E-003	6	...........	-327.66
	378	75.8	-6.09910E-001	-6.99811E-008	0.00000E+000	-6.10000E-001	1.43149E-003	6	...........	-327.66
	379	76	-6.19950E-001	-7.03471E-008	0.00000E+000	-6.20000E-001	1.43776E-003	6	...........	-327.66
	380	76.2	-6.29826E-001	-7.06048E-008	0.00000E+000	-6.30000E-001	1.43637E-003	6	...........	-327.66
[...]
	700	140.2	-8.29731E-001	-3.93239E-008	0.00000E+000	-8.30000E-001	1.45538E-003	6	...........	-327.66
	701	140.4	-8.39915E-001	-3.69405E-008	0.00000E+000	-8.40000E-001	1.44933E-003	6	...........	-327.66
	702	140.6	-8.49871E-001	-3.45526E-008	0.00000E+000	-8.50000E-001	1.45168E-003	6	...........	-327.66
	703	140.8	-8.59821E-001	-3.24981E-008	0.00000E+000	-8.60000E-001	1.45390E-003	6	...........	-327.66
	704	141	-8.69881E-001	-3.05945E-008	0.00000E+000	-8.70000E-001	1.44759E-003	6	...........	-327.66
	705	141.2	-8.79937E-001	-2.89992E-008	0.00000E+000	-8.80000E-001	1.44826E-003	6	...........	-327.66
	706	141.4	-8.89885E-001	-2.74144E-008	0.00000E+000	-8.90000E-001	1.44653E-003	6	...........	-327.66
	707	141.6	-8.99956E-001	-2.60926E-008	0.00000E+000	-9.00000E-001	1.44803E-003	6	...........	-327.66
	708	141.8	-8.89963E-001	-2.16314E-008	0.00000E+000	-8.90000E-001	1.44956E-003	6	...........	-327.66
	709	142	-8.79981E-001	-1.90779E-008	0.00000E+000	-8.80000E-001	1.44904E-003	6	...........	-327.66
	710	142.2	-8.69990E-001	-1.71631E-008	0.00000E+000	-8.70000E-001	1.43836E-003	6	...........	-327.66
	711	142.4	-8.59882E-001	-1.54686E-008	0.00000E+000	-8.60000E-001	1.45608E-003	6	...........	-327.66
	712	142.6	-8.49970E-001	-1.38475E-008	0.00000E+000	-8.50000E-001	1.45748E-003	6	...........	-327.66
	713	142.8	-8.40000E-001	-1.22679E-008	0.00000E+000	-8.40000E-001	1.44806E-003	6	...........	-327.66
	714	143	-8.29833E-001	-1.06280E-008	0.00000E+000	-8.30000E-001	1.45048E-003	6	...........	-327.66
	715	143.2	-8.19989E-001	-8.82322E-009	0.00000E+000	-8.20000E-001	1.44594E-003	6	...........	-327.66
	716	143.4	-8.09888E-001	-6.87320E-009	0.00000E+000	-8.10000E-001	1.44604E-003	6	...........	-327.66
	717	143.6	-7.99965E-001	-4.70969E-009	0.00000E+000	-8.00000E-001	1.44077E-003	6	...........	-327.66
	718	143.8	-7.89925E-001	-2.14041E-009	0.00000E+000	-7.90000E-001	1.44796E-003	6	...........	-327.66
	719	144	-7.79974E-001	5.73828E-010	0.00000E+000	-7.80000E-001	1.45386E-003	6	...........	-327.66
	720	144.2	-7.69967E-001	3.77010E-009	0.00000E+000	-7.70000E-001	1.45718E-003	6	...........	-327.66
	721	144.4	-7.59974E-001	7.19843E-009	0.00000E+000	-7.60000E-001	1.46031E-003	6	...........	-327.66
	722	144.6	-7.49898E-001	1.10105E-008	0.00000E+000	-7.50000E-001	1.45486E-003	6	...........	-327.66
	723	144.8	-7.39985E-001	1.48862E-008	0.00000E+000	-7.40000E-001	1.44898E-003	6	...........	-327.66
	724	145	-7.29914E-001	1.90436E-008	0.00000E+000	-7.30000E-001	1.44809E-003	6	...........	-327.66
	725	145.2	-7.19987E-001	2.27345E-008	0.00000E+000	-7.20000E-001	1.43654E-003	6	...........	-327.66
	726	145.4	-7.09906E-001	2.57986E-008	0.00000E+000	-7.10000E-001	1.45144E-003	6	...........	-327.66
	727	145.6	-6.99960E-001	2.78384E-008	0.00000E+000	-7.00000E-001	1.45515E-003	6	...........	-327.66
	728	145.8	-6.89964E-001	2.89954E-008	0.00000E+000	-6.90000E-001	1.45194E-003	6	...........	-327.66
	729	146	-6.79924E-001	2.93184E-008	0.00000E+000	-6.80000E-001	1.45289E-003	6	...........	-327.66
	730	146.2	-6.69870E-001	2.92601E-008	0.00000E+000	-6.70000E-001	1.44574E-003	6	...........	-327.66
	731	146.4	-6.59965E-001	2.88822E-008	0.00000E+000	-6.60000E-001	1.44994E-003	6	...........	-327.66
	732	146.6	-6.49924E-001	2.87748E-008	0.00000E+000	-6.50000E-001	1.44327E-003	6	...........	-327.66
	733	146.8	-6.39996E-001	2.87189E-008	0.00000E+000	-6.40000E-001	1.44608E-003	6	...........	-327.66
	734	147	-6.29910E-001	2.87900E-008	0.00000E+000	-6.30000E-001	1.44204E-003	6	...........	-327.66
	735	147.2	-6.19985E-001	2.87794E-008	0.00000E+000	-6.20000E-001	1.45021E-003	6	...........	-327.66
	736	147.4	-6.10001E-001	2.88612E-008	0.00000E+000	-6.10000E-001	1.45678E-003	6	...........	-327.66
	737	147.6	-5.99999E-001	2.90826E-008	0.00000E+000	-6.00000E-001	1.46105E-003	6	...........	-327.66
	738	147.8	-5.89970E-001	2.93403E-008	0.00000E+000	-5.90000E-001	1.45576E-003	6	...........	-327.66
	739	148	-5.79931E-001	2.95168E-008	0.00000E+000	-5.80000E-001	1.44621E-003	6	...........	-327.66
	740	148.2	-5.69986E-001	2.98035E-008	0.00000E+000	-5.70000E-001	1.45708E-003	6	...........	-327.66
	741	148.4	-5.60019E-001	3.01245E-008	0.00000E+000	-5.60000E-001	1.44007E-003	6	...........	-327.66
	742	148.6	-5.49904E-001	3.04720E-008	0.00000E+000	-5.50000E-001	1.44618E-003	6	...........	-327.66
	743	148.8	-5.40004E-001	3.07802E-008	0.00000E+000	-5.40000E-001	1.45405E-003	6	...........	-327.66
	744	149	-5.29986E-001	3.11835E-008	0.00000E+000	-5.30000E-001	1.44664E-003	6	...........	-327.66
	745	149.2	-5.20035E-001	3.15466E-008	0.00000E+000	-5.20000E-001	1.46075E-003	6	...........	-327.66
	746	149.4	-5.09961E-001	3.20913E-008	0.00000E+000	-5.10000E-001	1.45009E-003	6	...........	-327.66
	747	149.6	-4.99918E-001	3.24977E-008	0.00000E+000	-5.00000E-001	1.45111E-003	6	...........	-327.66
	748	149.8	-4.89989E-001	3.30473E-008	0.00000E+000	-4.90000E-001	1.44316E-003	6	...........	-327.66
	749	150	-4.79998E-001	3.34796E-008	0.00000E+000	-4.80000E-001	1.44468E-003	6	...........	-327.66
	750	150.2	-4.69888E-001	3.40724E-008	0.00000E+000	-4.70000E-001	1.45266E-003	6	...........	-327.66
	751	150.4	-4.59997E-001	3.46362E-008	0.00000E+000	-4.60000E-001	1.44324E-003	6	...........	-327.66
	752	150.6	-4.49935E-001	3.53688E-008	0.00000E+000	-4.50000E-001	1.45395E-003	6	...........	-327.66
	753	150.8	-4.40007E-001	3.59571E-008	0.00000E+000	-4.40000E-001	1.44941E-003	6	...........	-327.66
	754	151	-4.29990E-001	3.64752E-008	0.00000E+000	-4.30000E-001	1.45136E-003	6	...........	-327.66
	755	151.2	-4.19994E-001	3.70685E-008	0.00000E+000	-4.20000E-001	1.44973E-003	6	...........	-327.66
	756	151.4	-4.10001E-001	3.77106E-008	0.00000E+000	-4.10000E-001	1.45079E-003	6	...........	-327.66
	757	151.6	-4.00002E-001	3.83471E-008	0.00000E+000	-4.00000E-001	1.44821E-003	6	...........	-327.66
	758	151.8	-3.89966E-001	3.89802E-008	0.00000E+000	-3.90000E-001	1.43711E-003	6	...........	-327.66
	759	152	-3.80010E-001	3.95556E-008	0.00000E+000	-3.80000E-001	1.46006E-003	6	...........	-327.66
	760	152.2	-3.69935E-001	4.02673E-008	0.00000E+000	-3.70000E-001	1.44614E-003	6	...........	-327.66
	761	152.4	-3.60016E-001	4.08302E-008	0.00000E+000	-3.60000E-001	1.45378E-003	6	...........	-327.66
	762	152.6	-3.50003E-001	4.15040E-008	0.00000E+000	-3.50000E-001	1.44626E-003	6	...........	-327.66
	763	152.8	-3.40014E-001	4.19293E-008	0.00000E+000	-3.40000E-001	1.44798E-003	6	...........	-327.66
	764	153	-3.30016E-001	4.25802E-008	0.00000E+000	-3.30000E-001	1.44498E-003	6	...........	-327.66
	765	153.2	-3.20018E-001	4.30793E-008	0.00000E+000	-3.20000E-001	1.44509E-003	6	...........	-327.66
	766	153.4	-3.09999E-001	4.37277E-008	0.00000E+000	-3.10000E-001	1.44534E-003	6	...........	-327.66
	767	153.6	-2.99999E-001	4.41602E-008	0.00000E+000	-3.00000E-001	1.44419E-003	6	...........	-327.66
	768	153.8	-2.89970E-001	4.46917E-008	0.00000E+000	-2.90000E-001	1.45031E-003	6	...........	-327.66
	769	154	-2.80025E-001	4.51305E-008	0.00000E+000	-2.80000E-001	1.44416E-003	6	...........	-327.66
	770	154.2	-2.69955E-001	4.56267E-008	0.00000E+000	-2.70000E-001	1.45625E-003	6	...........	-327.66
	771	154.4	-2.60006E-001	4.59820E-008	0.00000E+000	-2.60000E-001	1.44279E-003	6	...........	-327.66
	772	154.6	-2.50014E-001	4.63781E-008	0.00000E+000	-2.50000E-001	1.45173E-003	6	...........	-327.66
	773	154.8	-2.40028E-001	4.68099E-008	0.00000E+000	-2.40000E-001	1.44134E-003	6	...........	-327.66
	774	155	-2.29999E-001	4.72486E-008	0.00000E+000	-2.30000E-001	1.44109E-003	6	...........	-327.66
	775	155.2	-2.19930E-001	4.75197E-008	0.00000E+000	-2.20000E-001	1.45446E-003	6	...........	-327.66
	776	155.4	-2.10005E-001	4.78653E-008	0.00000E+000	-2.10000E-001	1.45346E-003	6	...........	-327.66
	777	155.6	-2.00052E-001	4.81195E-008	0.00000E+000	-2.00000E-001	1.45321E-003	6	...........	-327.66
	778	155.8	-1.89915E-001	4.84832E-008	0.00000E+000	-1.90000E-001	1.45646E-003	6	...........	-327.66
	779	156	-1.80017E-001	4.86926E-008	0.00000E+000	-1.80000E-001	1.44948E-003	6	...........	-327.66
	780	156.2	-1.70012E-001	4.90426E-008	0.00000E+000	-1.70000E-001	1.44906E-003	6	...........	-327.66
	781	156.4	-1.60030E-001	4.91979E-008	0.00000E+000	-1.60000E-001	1.44187E-003	6	...........	-327.66
	782	156.6	-1.50030E-001	4.95233E-008	0.00000E+000	-1.50000E-001	1.44224E-003	6	...........	-327.66
	783	156.8	-1.40003E-001	4.97687E-008	0.00000E+000	-1.40000E-001	1.45203E-003	6	...........	-327.66
	784	157	-1.30023E-001	5.00611E-008	0.00000E+000	-1.30000E-001	1.45671E-003	6	...........	-327.66
	785	157.2	-1.20012E-001	5.03070E-008	0.00000E+000	-1.20000E-001	1.44703E-003	6	...........	-327.66
	786	157.4	-1.09998E-001	5.04032E-008	0.00000E+000	-1.10000E-001	1.45169E-003	6	...........	-327.66
	787	157.6	-1.00017E-001	5.05311E-008	0.00000E+000	-1.00000E-001	1.45351E-003	6	...........	-327.66
	788	157.8	-8.99926E-002	5.09943E-008	0.00000E+000	-9.00000E-002	1.44194E-003	6	...........	-327.66
	789	158	-8.00218E-002	5.11415E-008	0.00000E+000	-8.00000E-002	1.44573E-003	6	...........	-327.66
	790	158.2	-6.99956E-002	5.12204E-008	0.00000E+000	-7.00000E-002	1.44336E-003	6	...........	-327.66
	791	158.4	-6.00171E-002	5.12865E-008	0.00000E+000	-6.00000E-002	1.45004E-003	6	...........	-327.66
	792	158.6	-5.00328E-002	5.15250E-008	0.00000E+000	-5.00000E-002	1.44543E-003	6	...........	-327.66
	793	158.8	-3.99707E-002	5.18319E-008	0.00000E+000	-4.00000E-002	1.44674E-003	6	...........	-327.66
	794	159	-2.99778E-002	5.20137E-008	0.00000E+000	-3.00000E-002	1.45441E-003	6	...........	-327.66
	795	159.2	-1.99997E-002	5.19464E-008	0.00000E+000	-2.00000E-002	1.44721E-003	6	...........	-327.66
	796	159.4	-1.00090E-002	5.21732E-008	0.00000E+000	-1.00000E-002	1.44626E-003	6	...........	-327.66
	797	159.6	-2.59588E-005	5.22990E-008	0.00000E+000	-1.49012E-008	1.43464E-003	6	...........	-327.66
	798	159.8	1.00162E-002	5.25442E-008	0.00000E+000	9.99999E-003	1.44784E-003	6	...........	-327.66
	799	160	1.99958E-002	5.25415E-008	0.00000E+000	2.00000E-002	1.45203E-003	6	...........	-327.66
	800	160.2	2.99948E-002	5.26383E-008	0.00000E+000	3.00000E-002	1.45353E-003	6	...........	-327.66
	801	160.4	3.97959E-002	5.28532E-008	0.00000E+000	4.00000E-002	1.45113E-003	6	...........	-327.66
	802	160.6	5.00153E-002	5.30570E-008	0.00000E+000	5.00000E-002	1.44252E-003	6	...........	-327.66
	803	160.8	6.00016E-002	5.31154E-008	0.00000E+000	6.00000E-002	1.44559E-003	6	...........	-327.66
	804	161	7.00010E-002	5.33041E-008	0.00000E+000	7.00000E-002	1.44529E-003	6	...........	-327.66
	805	161.2	7.99715E-002	5.35219E-008	0.00000E+000	8.00000E-002	1.43822E-003	6	...........	-327.66
	806	161.4	9.00673E-002	5.37305E-008	0.00000E+000	9.00000E-002	1.44464E-003	6	...........	-327.66
	807	161.6	9.99864E-002	5.38446E-008	0.00000E+000	1.00000E-001	1.44983E-003	6	...........	-327.66
	808	161.8	1.09993E-001	5.41507E-008	0.00000E+000	1.10000E-001	1.44444E-003	6	...........	-327.66
	809	162	1.19991E-001	5.43608E-008	0.00000E+000	1.20000E-001	1.45284E-003	6	...........	-327.66
	810	162.2	1.30017E-001	5.46618E-008	0.00000E+000	1.30000E-001	1.44312E-003	6	...........	-327.66
	811	162.4	1.40048E-001	5.47877E-008	0.00000E+000	1.40000E-001	1.44661E-003	6	...........	-327.66
	812	162.6	1.50009E-001	5.50045E-008	0.00000E+000	1.50000E-001	1.44139E-003	6	...........	-327.66
	813	162.8	1.59977E-001	5.52256E-008	0.00000E+000	1.60000E-001	1.43616E-003	6	...........	-327.66
	814	163	1.70070E-001	5.55072E-008	0.00000E+000	1.70000E-001	1.44954E-003	6	...........	-327.66
	815	163.2	1.79986E-001	5.56297E-008	0.00000E+000	1.80000E-001	1.44909E-003	6	...........	-327.66
	816	163.4	1.89997E-001	5.58531E-008	0.00000E+000	1.90000E-001	1.45218E-003	6	...........	-327.66
	817	163.6	1.99981E-001	5.60564E-008	0.00000E+000	2.00000E-001	1.45703E-003	6	...........	-327.66
	818	163.8	2.09978E-001	5.62669E-008	0.00000E+000	2.10000E-001	1.45151E-003	6	...........	-327.66
	819	164	2.19938E-001	5.63884E-008	0.00000E+000	2.20000E-001	1.44438E-003	6	...........	-327.66
	820	164.2	2.29990E-001	5.65956E-008	0.00000E+000	2.30000E-001	1.44566E-003	6	...........	-327.66
	821	164.4	2.39961E-001	5.67698E-008	0.00000E+000	2.40000E-001	1.43991E-003	6	...........	-327.66
	822	164.6	2.50008E-001	5.70345E-008	0.00000E+000	2.50000E-001	1.44304E-003	6	...........	-327.66
	823	164.8	2.59973E-001	5.70658E-008	0.00000E+000	2.60000E-001	1.44659E-003	6	...........	-327.66
	824	165	2.70004E-001	5.73393E-008	0.00000E+000	2.70000E-001	1.45716E-003	6	...........	-327.66
	825	165.2	2.79961E-001	5.75232E-008	0.00000E+000	2.80000E-001	1.44596E-003	6	...........	-327.66
	826	165.4	2.89969E-001	5.77695E-008	0.00000E+000	2.90000E-001	1.45521E-003	6	...........	-327.66
	827	165.6	2.99978E-001	5.78810E-008	0.00000E+000	3.00000E-001	1.45131E-003	6	...........	-327.66
	828	165.8	3.09981E-001	5.81208E-008	0.00000E+000	3.10000E-001	1.44544E-003	6	...........	-327.66
	829	166	3.19969E-001	5.83525E-008	0.00000E+000	3.20000E-001	1.44297E-003	6	...........	-327.66
	830	166.2	3.29994E-001	5.86341E-008	0.00000E+000	3.30000E-001	1.44383E-003	6	...........	-327.66
	831	166.4	3.39981E-001	5.88237E-008	0.00000E+000	3.40000E-001	1.45204E-003	6	...........	-327.66
	832	166.6	3.50008E-001	5.91016E-008	0.00000E+000	3.50000E-001	1.46106E-003	6	...........	-327.66
	833	166.8	3.59939E-001	5.94263E-008	0.00000E+000	3.60000E-001	1.45430E-003	6	...........	-327.66
	834	167	3.69978E-001	5.97598E-008	0.00000E+000	3.70000E-001	1.45358E-003	6	...........	-327.66
	835	167.2	3.79981E-001	6.00037E-008	0.00000E+000	3.80000E-001	1.44863E-003	6	...........	-327.66
	836	167.4	3.89970E-001	6.03261E-008	0.00000E+000	3.90000E-001	1.44521E-003	6	...........	-327.66
	837	167.6	3.99952E-001	6.07271E-008	0.00000E+000	4.00000E-001	1.45114E-003	6	...........	-327.66
	838	167.8	4.09967E-001	6.10789E-008	0.00000E+000	4.10000E-001	1.44084E-003	6	...........	-327.66
	839	168	4.19990E-001	6.14318E-008	0.00000E+000	4.20000E-001	1.44531E-003	6	...........	-327.66
	840	168.2	4.29980E-001	6.17988E-008	0.00000E+000	4.30000E-001	1.44964E-003	6	...........	-327.66
	841	168.4	4.39941E-001	6.21922E-008	0.00000E+000	4.40000E-001	1.44783E-003	6	...........	-327.66
	842	168.6	4.50004E-001	6.26696E-008	0.00000E+000	4.50000E-001	1.44756E-003	6	...........	-327.66
	843	168.8	4.59974E-001	6.30230E-008	0.00000E+000	4.60000E-001	1.44763E-003	6	...........	-327.66
	844	169	4.69948E-001	6.35463E-008	0.00000E+000	4.70000E-001	1.44604E-003	6	...........	-327.66
	845	169.2	4.79949E-001	6.40018E-008	0.00000E+000	4.80000E-001	1.44729E-003	6	...........	-327.66
	846	169.4	4.89955E-001	6.45653E-008	0.00000E+000	4.90000E-001	1.44568E-003	6	...........	-327.66
	847	169.6	4.99988E-001	6.50735E-008	0.00000E+000	5.00000E-001	1.46045E-003	6	...........	-327.66
	848	169.8	5.09968E-001	6.56284E-008	0.00000E+000	5.10000E-001	1.46353E-003	6	...........	-327.66
	849	170	5.19950E-001	6.62759E-008	0.00000E+000	5.20000E-001	1.44866E-003	6	...........	-327.66
	850	170.2	5.29993E-001	6.69600E-008	0.00000E+000	5.30000E-001	1.45566E-003	6	...........	-327.66
	851	170.4	5.39977E-001	6.76632E-008	0.00000E+000	5.40000E-001	1.44286E-003	6	...........	-327.66
	852	170.6	5.49971E-001	6.84314E-008	0.00000E+000	5.50000E-001	1.44976E-003	6	...........	-327.66
	853	170.8	5.59960E-001	6.93216E-008	0.00000E+000	5.60000E-001	1.44989E-003	6	...........	-327.66
	854	171	5.69968E-001	7.02797E-008	0.00000E+000	5.70000E-001	1.44344E-003	6	...........	-327.66
	855	171.2	5.79975E-001	7.12970E-008	0.00000E+000	5.80000E-001	1.45493E-003	6	...........	-327.66
	856	171.4	5.89960E-001	7.25076E-008	0.00000E+000	5.90000E-001	1.45121E-003	6	...........	-327.66
	857	171.6	5.99960E-001	7.38059E-008	0.00000E+000	6.00000E-001	1.45161E-003	6	...........	-327.66
CURVE4	TABLE
	Pt	T	Vf	Im	Vu	Sig	Ach	IERange	Over	Temp
	#	s	V vs. Ref.	A	V	V	V	#	bits	deg C
	858	171.8	5.89984E-001	-6.45192E-009	0.00000E+000	5.90000E-001	1.45246E-003	6	...........	-327.66
	859	172	5.79995E-001	-1.40536E-008	0.00000E+000	5.80000E-001	1.45696E-003	6	...........	-327.66
	860	172.2	5.69995E-001	-1.86387E-008	0.00000E+000	5.70000E-001	1.43677E-003	6	...........	-327.66
	861	172.4	5.59967E-001	-2.19265E-008	0.00000E+000	5.60000E-001	1.44372E-003	6	...........	-327.66
	862	172.6	5.50002E-001	-2.43114E-008	0.00000E+000	5.50000E-001	1.45466E-003	6	...........	-327.66
	863	172.8	5.39999E-001	-2.61871E-008	0.00000E+000	5.40000E-001	1.43856E-003	6	...........	-327.66
	864	173	5.30019E-001	-2.75814E-008	0.00000E+000	5.30000E-001	1.44859E-003	6	...........	-327.66
	865	173.2	5.19987E-001	-2.87624E-008	0.00000E+000	5.20000E-001	1.44106E-003	6	...........	-327.66
	866	173.4	5.09977E-001	-2.97007E-008	0.00000E+000	5.10000E-001	1.44958E-003	6	...........	-327.66
	867	173.6	5.00014E-001	-3.05239E-008	0.00000E+000	5.00000E-001	1.44571E-003	6	...........	-327.66
	868	173.8	4.89983E-001	-3.12231E-008	0.00000E+000	4.90000E-001	1.44274E-003	6	...........	-327.66
	869	174	4.79964E-001	-3.19141E-008	0.00000E+000	4.80000E-001	1.44047E-003	6	...........	-327.66
	870	174.2	4.69983E-001	-3.23982E-008	0.00000E+000	4.70000E-001	1.43964E-003	6	...........	-327.66
	871	174.4	4.59999E-001	-3.29361E-008	0.00000E+000	4.60000E-001	1.44449E-003	6	...........	-327.66
	872	174.6	4.50049E-001	-3.33055E-008	0.00000E+000	4.50000E-001	1.43856E-003	6	...........	-327.66
	873	174.8	4.39946E-001	-3.38012E-008	0.00000E+000	4.40000E-001	1.44511E-003	6	...........	-327.66
	874	175	4.29998E-001	-3.41003E-008	0.00000E+000	4.30000E-001	1.44626E-003	6	...........	-327.66
	875	175.2	4.20054E-001	-3.44438E-008	0.00000E+000	4.20000E-001	1.44518E-003	6	...........	-327.66
	876	175.4	4.09994E-001	-3.46989E-008	0.00000E+000	4.10000E-001	1.42892E-003	6	...........	-327.66
	877	175.6	3.99989E-001	-3.50050E-008	0.00000E+000	4.00000E-001	1.44689E-003	6	...........	-327.66
	878	175.8	3.89998E-001	-3.53531E-008	0.00000E+000	3.90000E-001	1.44566E-003	6	...........	-327.66
	879	176	3.80002E-001	-3.56415E-008	0.00000E+000	3.80000E-001	1.43901E-003	6	...........	-327.66
	880	176.2	3.70038E-001	-3.58392E-008	0.00000E+000	3.70000E-001	1.44606E-003	6	...........	-327.66
	881	176.4	3.59978E-001	-3.61233E-008	0.00000E+000	3.60000E-001	1.43992E-003	6	...........	-327.66
	882	176.6	3.50032E-001	-3.63572E-008	0.00000E+000	3.50000E-001	1.45111E-003	6	...........	-327.66
	883	176.8	3.40018E-001	-3.65778E-008	0.00000E+000	3.40000E-001	1.45765E-003	6	...........	-327.66
	884	177	3.30031E-001	-3.67142E-008	0.00000E+000	3.30000E-001	1.43856E-003	6	...........	-327.66
	885	177.2	3.20002E-001	-3.69688E-008	0.00000E+000	3.20000E-001	1.44448E-003	6	...........	-327.66
	886	177.4	3.10001E-001	-3.71355E-008	0.00000E+000	3.10000E-001	1.44344E-003	6	...........	-327.66
	887	177.6	3.00004E-001	-3.74298E-008	0.00000E+000	3.00000E-001	1.44464E-003	6	...........	-327.66
	888	177.8	2.90020E-001	-3.74870E-008	0.00000E+000	2.90000E-001	1.44184E-003	6	...........	-327.66
	889	178	2.79988E-001	-3.77513E-008	0.00000E+000	2.80000E-001	1.46215E-003	6	...........	-327.66
	890	178.2	2.70105E-001	-3.79020E-008	0.00000E+000	2.70000E-001	1.45518E-003	6	...........	-327.66
	891	178.4	2.60007E-001	-3.81819E-008	0.00000E+000	2.60000E-001	1.45966E-003	6	...........	-327.66
	892	178.6	2.50060E-001	-3.82082E-008	0.00000E+000	2.50000E-001	1.44403E-003	6	...........	-327.66
	893	178.8	2.40009E-001	-3.84664E-008	0.00000E+000	2.40000E-001	1.43544E-003	6	...........	-327.66
	894	179	2.30001E-001	-3.86653E-008	0.00000E+000	2.30000E-001	1.45088E-003	6	...........	-327.66
	895	179.2	2.20008E-001	-3.88336E-008	0.00000E+000	2.20000E-001	1.44244E-003	6	...........	-327.66
	896	179.4	2.10009E-001	-3.89535E-008	0.00000E+000	2.10000E-001	1.45259E-003	6	...........	-327.66
	897	179.6	2.00005E-001	-3.91767E-008	0.00000E+000	2.00000E-001	1.45493E-003	6	...........	-327.66
	898	179.8	1.90062E-001	-3.93364E-008	0.00000E+000	1.90000E-001	1.46285E-003	6	...........	-327.66
	899	180	1.80025E-001	-3.95388E-008	0.00000E+000	1.80000E-001	1.45324E-003	6	...........	-327.66
	900	180.2	1.70122E-001	-3.96868E-008	0.00000E+000	1.70000E-001	1.45206E-003	6	...........	-327.66