File: Test_Data_Files/20250509_IF0011_IIA42_PBSair_E04_D_CV5000_PEDOT.DTA
EXPLAIN
TAG	CV
TITLE	LABEL	CV5000	Test Identifier
DATE	LABEL	5/9/2025	Date
TIME	LABEL	14:56:54	Time
NOTES	NOTES	1	Notes...

PSTAT	PSTAT	REF600P-43058	Potentiostat
VINIT	POTEN	0.00000E+000	T	Initial E (V)
VLIMIT1	POTEN	-9.00000E-001	F	Scan Limit 1 (V)
VLIMIT2	POTEN	6.00000E-001	F	Scan Limit 2 (V)
VFINAL	POTEN	0.00000E+000	T	Final E (V)
SCANRATE	QUANT	4.99999E+003	Scan Rate (mV/s)
STEPSIZE	QUANT	1.00000E+001	Step Size (mV)
CYCLES	IQUANT	3	Cycles (#)
IMODE	SELECTOR	1	I/E Range Mode
IRANGE	QUANT	1.00000E-002	Max Current (mA)
AREA	QUANT	1.00000E+000	Sample Area (cm^2)
EQDELAY	QUANT	5.00000E+000	Equil. Time (s)
IRCOMP	SELECTOR	0	IRComp
PFCOR	QUANT	5.00000E+001	PF Corr. (ohm)
SAMPLINGMODE	SELECTOR	2	Sampling Mode
EOC	QUANT	0.1683657	Open Circuit (V)
ELECTRODETYPE	SELECTOR	0	Electrode Type
STRIPPING	TOGGLE	F	Used for Stripping
SEQUENCER	TOGGLE	TRUE	Run as Sequence
PSTATMODEL	IQUANT	7	Pstat Model
PSTATSECTION	LABEL	REF600P-43058	Pstat Section
PSTATSERIALNO	LABEL	43058	Pstat Serial Number
CTRLMODE	IQUANT	1	Control Mode
ELECTROMETER	IQUANT	0	RE=0 or CS=1
IESTAB	IQUANT	2	I/E Stability
CASPEED	IQUANT	4	Control Amp Speed
CONVENTION	IQUANT	1	Current Convention
ICHRANGE	IQUANT	2	Ich Range
ICHRANGEMODE	TOGGLE	F	Ich Auto Range
ICHOFFSETENABLE	TOGGLE	F	Ich Offset Enable
ICHOFFSET	QUANT	0	Ich Offset (V)
ICHFILTER	IQUANT	2	Ich Filter
VCHRANGE	IQUANT	2	Vch Range
VCHRANGEMODE	TOGGLE	F	Vch Auto Range
VCHOFFSETENABLE	TOGGLE	F	Vch Offset Enable
VCHOFFSET	QUANT	0	Vch Offset (V)
VCHFILTER	IQUANT	2	Vch Filter
ACHRANGE	IQUANT	2	Ach Range
ACHOFFSETENABLE	TOGGLE	F	Ach Offset Enable
ACHOFFSET	QUANT	0	Ach Offset (V)
ACHFILTER	IQUANT	1	Ach Filter
IERANGELOWERLIMIT	IQUANT	1	I/E Range Lower Limit
IERANGEMODE	TOGGLE	F	I/E AutoRange
IERANGE	IQUANT	7	I/E Range
POSFEEDENABLE	TOGGLE	F	Positive Feedback IR Comp
POSFEEDRESISTANCE	QUANT	0	Positive Feedback Resistance (ohm)
ACHSELECT	IQUANT	4	Ach Select
SENSECABLEID	IQUANT	7	Sense Cable ID
PWRCABLEID	IQUANT	7	Power Cable ID
DCCALDATE	LABEL	5/8/2025	DC Calibration Date
ACCALDATE	LABEL	5/8/2025	AC Calibration Date
THERMOSELECT	IQUANT	1	Thermo Select
FRAMEWORKVERSION	LABEL	7.10.4	Framework Version
INSTRUMENTVERSION	LABEL	5.01	Instrument Version
COMMVERSION	LABEL	5.10	Communications Version
CPUPLDVERSION	LABEL	6.00	CPU PLD Version
CTRLPLDVERSION	LABEL	3.21	CTRL PLD Version
PSTATPLDVERSION	LABEL	0.00	PSTAT PLD Version
CURVE1	TABLE
	Pt	T	Vf	Im	Vu	Sig	Ach	IERange	Over	Temp
	#	s	V vs. Ref.	A	V	V	V	#	bits	deg C
	0	0.002	1.68536E-001	9.56205E-009	0.00000E+000	1.68350E-001	1.37471E-003	7	...........	-327.66
	1	0.004	1.59182E-001	-6.76514E-007	0.00000E+000	1.58350E-001	1.40229E-003	7	...........	-327.66
	2	0.006	1.49198E-001	-1.02653E-006	0.00000E+000	1.48350E-001	1.41091E-003	7	...........	-327.66
	3	0.008	1.39233E-001	-1.27775E-006	0.00000E+000	1.38350E-001	1.46781E-003	7	...........	-327.66
	4	0.01	1.29192E-001	-1.48281E-006	0.00000E+000	1.28350E-001	1.48505E-003	7	...........	-327.66
	5	0.012	1.19182E-001	-1.66165E-006	0.00000E+000	1.18350E-001	1.46436E-003	7	...........	-327.66
	6	0.014	1.09179E-001	-1.82160E-006	0.00000E+000	1.08350E-001	1.48333E-003	7	...........	-327.66
	7	0.016	9.91937E-002	-1.96793E-006	0.00000E+000	9.83500E-002	1.46091E-003	7	...........	-327.66
	8	0.018	8.91868E-002	-2.10269E-006	0.00000E+000	8.83500E-002	1.48160E-003	7	...........	-327.66
	9	0.02	7.91523E-002	-2.22881E-006	0.00000E+000	7.83500E-002	1.48678E-003	7	...........	-327.66
	10	0.022	6.91963E-002	-2.34802E-006	0.00000E+000	6.83500E-002	1.46609E-003	7	...........	-327.66
	11	0.024	5.92023E-002	-2.45967E-006	0.00000E+000	5.83500E-002	1.49540E-003	7	...........	-327.66
	12	0.026	4.92161E-002	-2.56588E-006	0.00000E+000	4.83500E-002	1.39712E-003	7	...........	-327.66
	13	0.028	3.92023E-002	-2.66925E-006	0.00000E+000	3.83500E-002	1.47815E-003	7	...........	-327.66
	14	0.03	2.91868E-002	-2.76494E-006	0.00000E+000	2.83500E-002	1.45229E-003	7	...........	-327.66
	15	0.032	1.91980E-002	-2.85836E-006	0.00000E+000	1.83500E-002	1.49884E-003	7	...........	-327.66
	16	0.034	9.18938E-003	-2.94820E-006	0.00000E+000	8.34998E-003	1.42815E-003	7	...........	-327.66
	17	0.036	-8.23555E-004	-3.03261E-006	0.00000E+000	-1.65001E-003	1.41609E-003	7	...........	-327.66
	18	0.038	-1.07442E-002	-3.11424E-006	0.00000E+000	-1.16500E-002	1.50574E-003	7	...........	-327.66
	19	0.04	-2.08011E-002	-3.19534E-006	0.00000E+000	-2.16500E-002	1.44367E-003	7	...........	-327.66
	20	0.042	-3.08210E-002	-3.27028E-006	0.00000E+000	-3.16500E-002	1.43333E-003	7	...........	-327.66
	21	0.044	-4.08201E-002	-3.34483E-006	0.00000E+000	-4.16500E-002	1.42126E-003	7	...........	-327.66
	22	0.046	-5.08253E-002	-3.41727E-006	0.00000E+000	-5.16500E-002	1.43505E-003	7	...........	-327.66
	23	0.048	-6.07718E-002	-3.48655E-006	0.00000E+000	-6.16500E-002	1.45057E-003	7	...........	-327.66
	24	0.05	-7.08287E-002	-3.55558E-006	0.00000E+000	-7.16500E-002	1.44884E-003	7	...........	-327.66
	25	0.052	-8.08486E-002	-3.61960E-006	0.00000E+000	-8.16500E-002	1.50919E-003	7	...........	-327.66
	26	0.054	-9.07994E-002	-3.68436E-006	0.00000E+000	-9.16500E-002	1.41609E-003	7	...........	-327.66
	27	0.056	-1.00823E-001	-3.74643E-006	0.00000E+000	-1.01650E-001	1.37988E-003	7	...........	-327.66
	28	0.058	-1.10807E-001	-3.80758E-006	0.00000E+000	-1.11650E-001	1.48160E-003	7	...........	-327.66
	29	0.06	-1.20821E-001	-3.86823E-006	0.00000E+000	-1.21650E-001	1.51436E-003	7	...........	-327.66
	30	0.062	-1.30830E-001	-3.92453E-006	0.00000E+000	-1.31650E-001	1.48160E-003	7	...........	-327.66
	31	0.064	-1.40759E-001	-3.98222E-006	0.00000E+000	-1.41650E-001	1.45747E-003	7	...........	-327.66
	32	0.066	-1.50834E-001	-4.03780E-006	0.00000E+000	-1.51650E-001	1.42815E-003	7	...........	-327.66
	33	0.068	-1.60824E-001	-4.09276E-006	0.00000E+000	-1.61650E-001	1.41953E-003	7	...........	-327.66
	34	0.07	-1.70793E-001	-4.14623E-006	0.00000E+000	-1.71650E-001	1.42643E-003	7	...........	-327.66
	35	0.072	-1.80817E-001	-4.19856E-006	0.00000E+000	-1.81650E-001	1.45229E-003	7	...........	-327.66
	36	0.074	-1.90777E-001	-4.25021E-006	0.00000E+000	-1.91650E-001	1.40057E-003	7	...........	-327.66
	37	0.076	-2.00850E-001	-4.30258E-006	0.00000E+000	-2.01650E-001	1.45229E-003	7	...........	-327.66
	38	0.078	-2.10804E-001	-4.35284E-006	0.00000E+000	-2.11650E-001	1.47643E-003	7	...........	-327.66
	39	0.08	-2.20754E-001	-4.40063E-006	0.00000E+000	-2.21650E-001	1.46264E-003	7	...........	-327.66
	40	0.082	-2.30806E-001	-4.44886E-006	0.00000E+000	-2.31650E-001	1.43505E-003	7	...........	-327.66
	41	0.084	-2.40751E-001	-4.49645E-006	0.00000E+000	-2.41650E-001	1.46781E-003	7	...........	-327.66
	42	0.086	-2.50780E-001	-4.54264E-006	0.00000E+000	-2.51650E-001	1.46091E-003	7	...........	-327.66
	43	0.088	-2.60803E-001	-4.58779E-006	0.00000E+000	-2.61650E-001	1.41781E-003	7	...........	-327.66
	44	0.09	-2.70756E-001	-4.63038E-006	0.00000E+000	-2.71650E-001	1.42815E-003	7	...........	-327.66
	45	0.092	-2.80802E-001	-4.67361E-006	0.00000E+000	-2.81650E-001	1.46781E-003	7	...........	-327.66
	46	0.094	-2.90706E-001	-4.71608E-006	0.00000E+000	-2.91650E-001	1.43678E-003	7	...........	-327.66
	47	0.096	-3.00770E-001	-4.75678E-006	0.00000E+000	-3.01650E-001	1.50574E-003	7	...........	-327.66
	48	0.098	-3.10800E-001	-4.79554E-006	0.00000E+000	-3.11650E-001	1.50747E-003	7	...........	-327.66
	49	0.1	-3.20750E-001	-4.83380E-006	0.00000E+000	-3.21650E-001	1.42815E-003	7	...........	-327.66
	50	0.102	-3.30804E-001	-4.87028E-006	0.00000E+000	-3.31650E-001	1.50229E-003	7	...........	-327.66
	51	0.104	-3.40792E-001	-4.90581E-006	0.00000E+000	-3.41650E-001	1.52988E-003	7	...........	-327.66
	52	0.106	-3.50787E-001	-4.93837E-006	0.00000E+000	-3.51650E-001	1.44712E-003	7	...........	-327.66
	53	0.108	-3.60823E-001	-4.97005E-006	0.00000E+000	-3.61650E-001	1.39540E-003	7	...........	-327.66
	54	0.11	-3.70752E-001	-5.00024E-006	0.00000E+000	-3.71650E-001	1.39022E-003	7	...........	-327.66
	55	0.112	-3.80783E-001	-5.02762E-006	0.00000E+000	-3.81650E-001	1.40919E-003	7	...........	-327.66
	56	0.114	-3.90818E-001	-5.05471E-006	0.00000E+000	-3.91650E-001	1.39712E-003	7	...........	-327.66
	57	0.116	-4.00790E-001	-5.07820E-006	0.00000E+000	-4.01650E-001	1.50574E-003	7	...........	-327.66
	58	0.118	-4.10771E-001	-5.10108E-006	0.00000E+000	-4.11650E-001	1.52471E-003	7	...........	-327.66
	59	0.12	-4.20748E-001	-5.12159E-006	0.00000E+000	-4.21650E-001	1.50057E-003	7	...........	-327.66
	60	0.122	-4.30781E-001	-5.13900E-006	0.00000E+000	-4.31650E-001	1.50919E-003	7	...........	-327.66
	61	0.124	-4.40797E-001	-5.15590E-006	0.00000E+000	-4.41650E-001	1.42815E-003	7	...........	-327.66
	62	0.126	-4.50740E-001	-5.16995E-006	0.00000E+000	-4.51650E-001	1.43505E-003	7	...........	-327.66
	63	0.128	-4.60777E-001	-5.18308E-006	0.00000E+000	-4.61650E-001	1.46436E-003	7	...........	-327.66
	64	0.13	-4.70672E-001	-5.19306E-006	0.00000E+000	-4.71650E-001	1.46091E-003	7	...........	-327.66
	65	0.132	-4.80772E-001	-5.20332E-006	0.00000E+000	-4.81650E-001	1.45229E-003	7	...........	-327.66
	66	0.134	-4.90778E-001	-5.20996E-006	0.00000E+000	-4.91650E-001	1.45402E-003	7	...........	-327.66
	67	0.136	-5.00717E-001	-5.21520E-006	0.00000E+000	-5.01650E-001	1.42815E-003	7	...........	-327.66
	68	0.138	-5.10772E-001	-5.21903E-006	0.00000E+000	-5.11650E-001	1.43505E-003	7	...........	-327.66
	69	0.14	-5.20819E-001	-5.22062E-006	0.00000E+000	-5.21650E-001	1.43160E-003	7	...........	-327.66
	70	0.142	-5.30774E-001	-5.22034E-006	0.00000E+000	-5.31650E-001	1.49022E-003	7	...........	-327.66
	71	0.144	-5.40787E-001	-5.21691E-006	0.00000E+000	-5.41650E-001	1.42126E-003	7	...........	-327.66
	72	0.146	-5.50738E-001	-5.21141E-006	0.00000E+000	-5.51650E-001	1.52643E-003	7	...........	-327.66
	73	0.148	-5.60798E-001	-5.20161E-006	0.00000E+000	-5.61650E-001	1.51781E-003	7	...........	-327.66
	74	0.15	-5.70780E-001	-5.18939E-006	0.00000E+000	-5.71650E-001	1.45402E-003	7	...........	-327.66
	75	0.152	-5.80755E-001	-5.17018E-006	0.00000E+000	-5.81650E-001	1.41953E-003	7	...........	-327.66
	76	0.154	-5.90768E-001	-5.14492E-006	0.00000E+000	-5.91650E-001	1.44195E-003	7	...........	-327.66
	77	0.156	-6.00793E-001	-5.11533E-006	0.00000E+000	-6.01650E-001	1.42643E-003	7	...........	-327.66
	78	0.158	-6.10784E-001	-5.07636E-006	0.00000E+000	-6.11650E-001	1.44195E-003	7	...........	-327.66
	79	0.16	-6.20749E-001	-5.02954E-006	0.00000E+000	-6.21650E-001	1.50057E-003	7	...........	-327.66
	80	0.162	-6.30715E-001	-4.96967E-006	0.00000E+000	-6.31650E-001	1.45747E-003	7	...........	-327.66
	81	0.164	-6.40766E-001	-4.89768E-006	0.00000E+000	-6.41650E-001	1.47643E-003	7	...........	-327.66
	82	0.166	-6.50635E-001	-4.81227E-006	0.00000E+000	-6.51650E-001	1.42988E-003	7	...........	-327.66
	83	0.168	-6.60728E-001	-4.71327E-006	0.00000E+000	-6.61650E-001	1.42126E-003	7	...........	-327.66
	84	0.17	-6.70676E-001	-4.59798E-006	0.00000E+000	-6.71650E-001	1.48160E-003	7	...........	-327.66
	85	0.172	-6.80702E-001	-4.46598E-006	0.00000E+000	-6.81650E-001	1.45057E-003	7	...........	-327.66
	86	0.174	-6.90769E-001	-4.31856E-006	0.00000E+000	-6.91650E-001	1.44195E-003	7	...........	-327.66
	87	0.176	-7.00718E-001	-4.15452E-006	0.00000E+000	-7.01650E-001	1.39884E-003	7	...........	-327.66
	88	0.178	-7.10776E-001	-3.97248E-006	0.00000E+000	-7.11650E-001	1.45229E-003	7	...........	-327.66
	89	0.18	-7.20792E-001	-3.78358E-006	0.00000E+000	-7.21650E-001	1.45574E-003	7	...........	-327.66
	90	0.182	-7.30726E-001	-3.58791E-006	0.00000E+000	-7.31650E-001	1.49367E-003	7	...........	-327.66
	91	0.184	-7.40771E-001	-3.38107E-006	0.00000E+000	-7.41650E-001	1.44712E-003	7	...........	-327.66
	92	0.186	-7.50733E-001	-3.17308E-006	0.00000E+000	-7.51650E-001	1.40747E-003	7	...........	-327.66
	93	0.188	-7.60747E-001	-2.96353E-006	0.00000E+000	-7.61650E-001	1.47126E-003	7	...........	-327.66
	94	0.19	-7.70765E-001	-2.75609E-006	0.00000E+000	-7.71650E-001	1.49540E-003	7	...........	-327.66
	95	0.192	-7.80688E-001	-2.55915E-006	0.00000E+000	-7.81650E-001	1.49367E-003	7	...........	-327.66
	96	0.194	-7.90745E-001	-2.37145E-006	0.00000E+000	-7.91650E-001	1.38850E-003	7	...........	-327.66
	97	0.196	-8.00785E-001	-2.19877E-006	0.00000E+000	-8.01650E-001	1.40057E-003	7	...........	-327.66
	98	0.198	-8.10742E-001	-2.03551E-006	0.00000E+000	-8.11650E-001	1.39195E-003	7	...........	-327.66
	99	0.2	-8.20777E-001	-1.88001E-006	0.00000E+000	-8.21650E-001	1.42298E-003	7	...........	-327.66
	100	0.202	-8.30719E-001	-1.74583E-006	0.00000E+000	-8.31650E-001	1.50057E-003	7	...........	-327.66
	101	0.204	-8.40785E-001	-1.62676E-006	0.00000E+000	-8.41650E-001	1.49195E-003	7	...........	-327.66
	102	0.206	-8.50735E-001	-1.52127E-006	0.00000E+000	-8.51650E-001	1.51436E-003	7	...........	-327.66
	103	0.208	-8.60704E-001	-1.43012E-006	0.00000E+000	-8.61650E-001	1.50229E-003	7	...........	-327.66
	104	0.21	-8.70769E-001	-1.34981E-006	0.00000E+000	-8.71650E-001	1.41436E-003	7	...........	-327.66
	105	0.212	-8.80744E-001	-1.27965E-006	0.00000E+000	-8.81650E-001	1.47988E-003	7	...........	-327.66
	106	0.214	-8.90793E-001	-1.21274E-006	0.00000E+000	-8.91650E-001	1.43505E-003	7	...........	-327.66
	107	0.216	-9.00795E-001	-1.15682E-006	0.00000E+000	-9.01650E-001	1.46609E-003	7	...........	-327.66
	108	0.218	-8.92367E-001	-1.01401E-006	0.00000E+000	-8.91650E-001	1.47298E-003	7	...........	-327.66
	109	0.22	-8.82293E-001	-9.06494E-007	0.00000E+000	-8.81650E-001	1.49540E-003	7	...........	-327.66
	110	0.222	-8.72344E-001	-8.25121E-007	0.00000E+000	-8.71650E-001	1.43505E-003	7	...........	-327.66
	111	0.224	-8.62362E-001	-7.57767E-007	0.00000E+000	-8.61650E-001	1.44195E-003	7	...........	-327.66
	112	0.226	-8.52356E-001	-6.98965E-007	0.00000E+000	-8.51650E-001	1.41091E-003	7	...........	-327.66
	113	0.228	-8.42348E-001	-6.47838E-007	0.00000E+000	-8.41650E-001	1.47298E-003	7	...........	-327.66
	114	0.23	-8.32175E-001	-6.01539E-007	0.00000E+000	-8.31650E-001	1.52298E-003	7	...........	-327.66
	115	0.232	-8.22306E-001	-5.56722E-007	0.00000E+000	-8.21650E-001	1.48678E-003	7	...........	-327.66
	116	0.234	-8.12324E-001	-5.12561E-007	0.00000E+000	-8.11650E-001	1.51609E-003	7	...........	-327.66
	117	0.236	-8.02365E-001	-4.70900E-007	0.00000E+000	-8.01650E-001	1.46781E-003	7	...........	-327.66
	118	0.238	-7.92328E-001	-4.28463E-007	0.00000E+000	-7.91650E-001	1.38333E-003	7	...........	-327.66
	119	0.24	-7.82277E-001	-3.86199E-007	0.00000E+000	-7.81650E-001	1.43160E-003	7	...........	-327.66
	120	0.242	-7.72315E-001	-3.41900E-007	0.00000E+000	-7.71650E-001	1.45057E-003	7	...........	-327.66
	121	0.244	-7.62283E-001	-2.96031E-007	0.00000E+000	-7.61650E-001	1.42643E-003	7	...........	-327.66
	122	0.246	-7.52280E-001	-2.46266E-007	0.00000E+000	-7.51650E-001	1.42298E-003	7	...........	-327.66
	123	0.248	-7.42368E-001	-1.92293E-007	0.00000E+000	-7.41650E-001	1.43850E-003	7	...........	-327.66
	124	0.25	-7.32338E-001	-1.34630E-007	0.00000E+000	-7.31650E-001	1.48850E-003	7	...........	-327.66
	125	0.252	-7.22356E-001	-7.10869E-008	0.00000E+000	-7.21650E-001	1.44712E-003	7	...........	-327.66
	126	0.254	-7.12366E-001	-1.85330E-009	0.00000E+000	-7.11650E-001	1.42988E-003	7	...........	-327.66
	127	0.256	-7.02348E-001	7.45537E-008	0.00000E+000	-7.01650E-001	1.45919E-003	7	...........	-327.66
	128	0.258	-6.92365E-001	1.60083E-007	0.00000E+000	-6.91650E-001	1.51781E-003	7	...........	-327.66
	129	0.26	-6.82386E-001	2.51216E-007	0.00000E+000	-6.81650E-001	1.50919E-003	7	...........	-327.66
	130	0.262	-6.72311E-001	3.53661E-007	0.00000E+000	-6.71650E-001	1.51436E-003	7	...........	-327.66
	131	0.264	-6.62362E-001	4.65935E-007	0.00000E+000	-6.61650E-001	1.44022E-003	7	...........	-327.66
	132	0.266	-6.52336E-001	5.91072E-007	0.00000E+000	-6.51650E-001	1.47643E-003	7	...........	-327.66
	133	0.268	-6.42363E-001	7.28746E-007	0.00000E+000	-6.41650E-001	1.42643E-003	7	...........	-327.66
	134	0.27	-6.32350E-001	8.83198E-007	0.00000E+000	-6.31650E-001	1.43850E-003	7	...........	-327.66
	135	0.272	-6.22378E-001	1.05113E-006	0.00000E+000	-6.21650E-001	1.42471E-003	7	...........	-327.66
	136	0.274	-6.12392E-001	1.23694E-006	0.00000E+000	-6.11650E-001	1.45402E-003	7	...........	-327.66
	137	0.276	-6.02390E-001	1.43845E-006	0.00000E+000	-6.01650E-001	1.47815E-003	7	...........	-327.66
	138	0.278	-5.92367E-001	1.66058E-006	0.00000E+000	-5.91650E-001	1.44884E-003	7	...........	-327.66
	139	0.28	-5.82391E-001	1.90196E-006	0.00000E+000	-5.81650E-001	1.44195E-003	7	...........	-327.66
	140	0.282	-5.72365E-001	2.16323E-006	0.00000E+000	-5.71650E-001	1.50402E-003	7	...........	-327.66
	141	0.284	-5.62417E-001	2.45026E-006	0.00000E+000	-5.61650E-001	1.48333E-003	7	...........	-327.66
	142	0.286	-5.52371E-001	2.75226E-006	0.00000E+000	-5.51650E-001	1.47298E-003	7	...........	-327.66
	143	0.288	-5.42397E-001	3.07155E-006	0.00000E+000	-5.41650E-001	1.45402E-003	7	...........	-327.66
	144	0.29	-5.32407E-001	3.40959E-006	0.00000E+000	-5.31650E-001	1.43505E-003	7	...........	-327.66
	145	0.292	-5.22393E-001	3.74811E-006	0.00000E+000	-5.21650E-001	1.48850E-003	7	...........	-327.66
	146	0.294	-5.12411E-001	4.08876E-006	0.00000E+000	-5.11650E-001	1.51953E-003	7	...........	-327.66
	147	0.296	-5.02377E-001	4.41258E-006	0.00000E+000	-5.01650E-001	1.47643E-003	7	...........	-327.66
	148	0.298	-4.92401E-001	4.70824E-006	0.00000E+000	-4.91650E-001	1.38678E-003	7	...........	-327.66
	149	0.3	-4.82416E-001	4.95986E-006	0.00000E+000	-4.81650E-001	1.46953E-003	7	...........	-327.66
	150	0.302	-4.72343E-001	5.16432E-006	0.00000E+000	-4.71650E-001	1.45919E-003	7	...........	-327.66
	151	0.304	-4.62405E-001	5.30625E-006	0.00000E+000	-4.61650E-001	1.43333E-003	7	...........	-327.66
	152	0.306	-4.52411E-001	5.39023E-006	0.00000E+000	-4.51650E-001	1.49367E-003	7	...........	-327.66
	153	0.308	-4.42399E-001	5.42102E-006	0.00000E+000	-4.41650E-001	1.43505E-003	7	...........	-327.66
	154	0.31	-4.32406E-001	5.40416E-006	0.00000E+000	-4.31650E-001	1.45747E-003	7	...........	-327.66
	155	0.312	-4.22348E-001	5.35555E-006	0.00000E+000	-4.21650E-001	1.41953E-003	7	...........	-327.66
	156	0.314	-4.12397E-001	5.28592E-006	0.00000E+000	-4.11650E-001	1.43333E-003	7	...........	-327.66
	157	0.316	-4.02429E-001	5.20712E-006	0.00000E+000	-4.01650E-001	1.41091E-003	7	...........	-327.66
	158	0.318	-3.92418E-001	5.12169E-006	0.00000E+000	-3.91650E-001	1.38678E-003	7	...........	-327.66
	159	0.32	-3.82423E-001	5.03732E-006	0.00000E+000	-3.81650E-001	1.44022E-003	7	...........	-327.66
	160	0.322	-3.72424E-001	4.95717E-006	0.00000E+000	-3.71650E-001	1.45229E-003	7	...........	-327.66
	161	0.324	-3.62402E-001	4.88443E-006	0.00000E+000	-3.61650E-001	1.41781E-003	7	...........	-327.66
	162	0.326	-3.52422E-001	4.81748E-006	0.00000E+000	-3.51650E-001	1.40402E-003	7	...........	-327.66
	163	0.328	-3.42411E-001	4.75752E-006	0.00000E+000	-3.41650E-001	1.41436E-003	7	...........	-327.66
	164	0.33	-3.32441E-001	4.70855E-006	0.00000E+000	-3.31650E-001	1.46953E-003	7	...........	-327.66
	165	0.332	-3.22400E-001	4.66447E-006	0.00000E+000	-3.21650E-001	1.52815E-003	7	...........	-327.66
	166	0.334	-3.12430E-001	4.62754E-006	0.00000E+000	-3.11650E-001	1.42471E-003	7	...........	-327.66
	167	0.336	-3.02405E-001	4.59520E-006	0.00000E+000	-3.01650E-001	1.42126E-003	7	...........	-327.66
	168	0.338	-2.92390E-001	4.56851E-006	0.00000E+000	-2.91650E-001	1.39367E-003	7	...........	-327.66
	169	0.34	-2.82441E-001	4.54590E-006	0.00000E+000	-2.81650E-001	1.50402E-003	7	...........	-327.66
	170	0.342	-2.72391E-001	4.52516E-006	0.00000E+000	-2.71650E-001	1.47643E-003	7	...........	-327.66
	171	0.344	-2.62399E-001	4.50902E-006	0.00000E+000	-2.61650E-001	1.49540E-003	7	...........	-327.66
	172	0.346	-2.52426E-001	4.49559E-006	0.00000E+000	-2.51650E-001	1.44712E-003	7	...........	-327.66
	173	0.348	-2.42409E-001	4.48331E-006	0.00000E+000	-2.41650E-001	1.51436E-003	7	...........	-327.66
	174	0.35	-2.32420E-001	4.47295E-006	0.00000E+000	-2.31650E-001	1.42988E-003	7	...........	-327.66
	175	0.352	-2.22386E-001	4.46313E-006	0.00000E+000	-2.21650E-001	1.45402E-003	7	...........	-327.66
	176	0.354	-2.12408E-001	4.45353E-006	0.00000E+000	-2.11650E-001	1.44540E-003	7	...........	-327.66
	177	0.356	-2.02452E-001	4.44555E-006	0.00000E+000	-2.01650E-001	1.47815E-003	7	...........	-327.66
	178	0.358	-1.92450E-001	4.43637E-006	0.00000E+000	-1.91650E-001	1.47471E-003	7	...........	-327.66
	179	0.36	-1.82422E-001	4.42697E-006	0.00000E+000	-1.81650E-001	1.41436E-003	7	...........	-327.66
	180	0.362	-1.72449E-001	4.41842E-006	0.00000E+000	-1.71650E-001	1.40574E-003	7	...........	-327.66
	181	0.364	-1.62437E-001	4.40894E-006	0.00000E+000	-1.61650E-001	1.44540E-003	7	...........	-327.66
	182	0.366	-1.52449E-001	4.40223E-006	0.00000E+000	-1.51650E-001	1.49884E-003	7	...........	-327.66
	183	0.368	-1.42402E-001	4.39480E-006	0.00000E+000	-1.41650E-001	1.43505E-003	7	...........	-327.66
	184	0.37	-1.32465E-001	4.38804E-006	0.00000E+000	-1.31650E-001	1.45402E-003	7	...........	-327.66
	185	0.372	-1.22451E-001	4.38150E-006	0.00000E+000	-1.21650E-001	1.43160E-003	7	...........	-327.66
	186	0.374	-1.12430E-001	4.37583E-006	0.00000E+000	-1.11650E-001	1.44712E-003	7	...........	-327.66
	187	0.376	-1.02418E-001	4.36985E-006	0.00000E+000	-1.01650E-001	1.42126E-003	7	...........	-327.66
	188	0.378	-9.24451E-002	4.36464E-006	0.00000E+000	-9.16500E-002	1.42815E-003	7	...........	-327.66
	189	0.38	-8.24529E-002	4.35922E-006	0.00000E+000	-8.16500E-002	1.50747E-003	7	...........	-327.66
	190	0.382	-7.24701E-002	4.35314E-006	0.00000E+000	-7.16500E-002	1.46953E-003	7	...........	-327.66
	191	0.384	-6.24123E-002	4.34833E-006	0.00000E+000	-6.16500E-002	1.43678E-003	7	...........	-327.66
	192	0.386	-5.24468E-002	4.34095E-006	0.00000E+000	-5.16500E-002	1.51091E-003	7	...........	-327.66
	193	0.388	-4.24279E-002	4.33698E-006	0.00000E+000	-4.16500E-002	1.49540E-003	7	...........	-327.66
	194	0.39	-3.24365E-002	4.32889E-006	0.00000E+000	-3.16500E-002	1.40574E-003	7	...........	-327.66
	195	0.392	-2.24322E-002	4.32189E-006	0.00000E+000	-2.16500E-002	1.39022E-003	7	...........	-327.66
	196	0.394	-1.24210E-002	4.31523E-006	0.00000E+000	-1.16500E-002	1.44712E-003	7	...........	-327.66
	197	0.396	-2.44942E-003	4.30689E-006	0.00000E+000	-1.65001E-003	1.47126E-003	7	...........	-327.66
	198	0.398	7.59455E-003	4.29934E-006	0.00000E+000	8.34998E-003	1.52815E-003	7	...........	-327.66
	199	0.4	1.76032E-002	4.28949E-006	0.00000E+000	1.83500E-002	1.42298E-003	7	...........	-327.66
	200	0.402	2.75652E-002	4.28040E-006	0.00000E+000	2.83500E-002	1.46781E-003	7	...........	-327.66
	201	0.404	3.75980E-002	4.27168E-006	0.00000E+000	3.83500E-002	1.45229E-003	7	...........	-327.66
	202	0.406	4.75756E-002	4.26171E-006	0.00000E+000	4.83500E-002	1.48678E-003	7	...........	-327.66
	203	0.408	5.75730E-002	4.25116E-006	0.00000E+000	5.83500E-002	1.50402E-003	7	...........	-327.66
	204	0.41	6.75980E-002	4.24024E-006	0.00000E+000	6.83500E-002	1.50402E-003	7	...........	-327.66
	205	0.412	7.75626E-002	4.22929E-006	0.00000E+000	7.83500E-002	1.43333E-003	7	...........	-327.66
	206	0.414	8.75894E-002	4.21738E-006	0.00000E+000	8.83500E-002	1.47126E-003	7	...........	-327.66
	207	0.416	9.75816E-002	4.20510E-006	0.00000E+000	9.83500E-002	1.46781E-003	7	...........	-327.66
	208	0.418	1.07575E-001	4.19222E-006	0.00000E+000	1.08350E-001	1.50574E-003	7	...........	-327.66
	209	0.42	1.17605E-001	4.18032E-006	0.00000E+000	1.18350E-001	1.44022E-003	7	...........	-327.66
	210	0.422	1.27570E-001	4.16770E-006	0.00000E+000	1.28350E-001	1.44195E-003	7	...........	-327.66
	211	0.424	1.37608E-001	4.15447E-006	0.00000E+000	1.38350E-001	1.48160E-003	7	...........	-327.66
	212	0.426	1.47577E-001	4.14080E-006	0.00000E+000	1.48350E-001	1.42815E-003	7	...........	-327.66
	213	0.428	1.57558E-001	4.12854E-006	0.00000E+000	1.58350E-001	1.47643E-003	7	...........	-327.66
	214	0.43	1.67617E-001	4.11626E-006	0.00000E+000	1.68350E-001	1.44022E-003	7	...........	-327.66
	215	0.432	1.77583E-001	4.10165E-006	0.00000E+000	1.78350E-001	1.43505E-003	7	...........	-327.66
	216	0.434	1.87581E-001	4.08831E-006	0.00000E+000	1.88350E-001	1.46609E-003	7	...........	-327.66
	217	0.436	1.97586E-001	4.07500E-006	0.00000E+000	1.98350E-001	1.49540E-003	7	...........	-327.66
	218	0.438	2.07565E-001	4.06292E-006	0.00000E+000	2.08350E-001	1.48333E-003	7	...........	-327.66
	219	0.44	2.17598E-001	4.04906E-006	0.00000E+000	2.18350E-001	1.46436E-003	7	...........	-327.66
	220	0.442	2.27570E-001	4.03680E-006	0.00000E+000	2.28350E-001	1.48333E-003	7	...........	-327.66
	221	0.444	2.37553E-001	4.02366E-006	0.00000E+000	2.38350E-001	1.45057E-003	7	...........	-327.66
	222	0.446	2.47542E-001	4.01125E-006	0.00000E+000	2.48350E-001	1.44022E-003	7	...........	-327.66
	223	0.448	2.57557E-001	3.99886E-006	0.00000E+000	2.58350E-001	1.40747E-003	7	...........	-327.66
	224	0.45	2.67545E-001	3.98702E-006	0.00000E+000	2.68350E-001	1.44195E-003	7	...........	-327.66
	225	0.452	2.77540E-001	3.97595E-006	0.00000E+000	2.78350E-001	1.49712E-003	7	...........	-327.66
	226	0.454	2.87541E-001	3.96508E-006	0.00000E+000	2.88350E-001	1.39884E-003	7	...........	-327.66
	227	0.456	2.97571E-001	3.95520E-006	0.00000E+000	2.98350E-001	1.50402E-003	7	...........	-327.66
	228	0.458	3.07535E-001	3.94625E-006	0.00000E+000	3.08350E-001	1.43333E-003	7	...........	-327.66
	229	0.46	3.17549E-001	3.93744E-006	0.00000E+000	3.18350E-001	1.45919E-003	7	...........	-327.66
	230	0.462	3.27545E-001	3.93001E-006	0.00000E+000	3.28350E-001	1.39367E-003	7	...........	-327.66
	231	0.464	3.37570E-001	3.92237E-006	0.00000E+000	3.38350E-001	1.41781E-003	7	...........	-327.66
	232	0.466	3.47539E-001	3.91661E-006	0.00000E+000	3.48350E-001	1.40229E-003	7	...........	-327.66
	233	0.468	3.57553E-001	3.91192E-006	0.00000E+000	3.58350E-001	1.38678E-003	7	...........	-327.66
	234	0.47	3.67567E-001	3.90802E-006	0.00000E+000	3.68350E-001	1.41264E-003	7	...........	-327.66
	235	0.472	3.77556E-001	3.90527E-006	0.00000E+000	3.78350E-001	1.43850E-003	7	...........	-327.66
	236	0.474	3.87513E-001	3.90313E-006	0.00000E+000	3.88350E-001	1.39540E-003	7	...........	-327.66
	237	0.476	3.97550E-001	3.90294E-006	0.00000E+000	3.98350E-001	1.41091E-003	7	...........	-327.66
	238	0.478	4.07544E-001	3.90432E-006	0.00000E+000	4.08350E-001	1.54884E-003	7	...........	-327.66
	239	0.48	4.17535E-001	3.90523E-006	0.00000E+000	4.18350E-001	1.44367E-003	7	...........	-327.66
	240	0.482	4.27546E-001	3.90782E-006	0.00000E+000	4.28350E-001	1.52126E-003	7	...........	-327.66
	241	0.484	4.37532E-001	3.91285E-006	0.00000E+000	4.38350E-001	1.44712E-003	7	...........	-327.66
	242	0.486	4.47560E-001	3.91803E-006	0.00000E+000	4.48350E-001	1.48505E-003	7	...........	-327.66
	243	0.488	4.57555E-001	3.92460E-006	0.00000E+000	4.58350E-001	1.50574E-003	7	...........	-327.66
	244	0.49	4.67484E-001	3.93318E-006	0.00000E+000	4.68350E-001	1.41953E-003	7	...........	-327.66
	245	0.492	4.77532E-001	3.94122E-006	0.00000E+000	4.78350E-001	1.52126E-003	7	...........	-327.66
	246	0.494	4.87531E-001	3.95013E-006	0.00000E+000	4.88350E-001	1.47643E-003	7	...........	-327.66
	247	0.496	4.97553E-001	3.96050E-006	0.00000E+000	4.98350E-001	1.47126E-003	7	...........	-327.66
	248	0.498	5.07522E-001	3.97140E-006	0.00000E+000	5.08350E-001	1.41436E-003	7	...........	-327.66
	249	0.5	5.17507E-001	3.98429E-006	0.00000E+000	5.18350E-001	1.38333E-003	7	...........	-327.66
	250	0.502	5.27549E-001	3.99930E-006	0.00000E+000	5.28350E-001	1.43505E-003	7	...........	-327.66
	251	0.504	5.37555E-001	4.01533E-006	0.00000E+000	5.38350E-001	1.44367E-003	7	...........	-327.66
	252	0.506	5.47543E-001	4.03328E-006	0.00000E+000	5.48350E-001	1.46091E-003	7	...........	-327.66
	253	0.508	5.57557E-001	4.05229E-006	0.00000E+000	5.58350E-001	1.46436E-003	7	...........	-327.66
	254	0.51	5.67514E-001	4.07355E-006	0.00000E+000	5.68350E-001	1.42643E-003	7	...........	-327.66
	255	0.512	5.77551E-001	4.09629E-006	0.00000E+000	5.78350E-001	1.39195E-003	7	...........	-327.66
	256	0.514	5.87514E-001	4.12031E-006	0.00000E+000	5.88350E-001	1.44367E-003	7	...........	-327.66
	257	0.516	5.97527E-001	4.14763E-006	0.00000E+000	5.98350E-001	1.43850E-003	7	...........	-327.66
CURVE2	TABLE
	Pt	T	Vf	Im	Vu	Sig	Ach	IERange	Over	Temp
	#	s	V vs. Ref.	A	V	V	V	#	bits	deg C
	258	0.518	5.90620E-001	2.91498E-006	0.00000E+000	5.90000E-001	1.42298E-003	7	...........	-327.66
	259	0.52	5.80761E-001	2.14696E-006	0.00000E+000	5.80000E-001	1.43333E-003	7	...........	-327.66
	260	0.522	5.70736E-001	1.61328E-006	0.00000E+000	5.70000E-001	1.39540E-003	7	...........	-327.66
	261	0.524	5.60768E-001	1.18241E-006	0.00000E+000	5.60000E-001	1.43678E-003	7	...........	-327.66
	262	0.526	5.50768E-001	8.16862E-007	0.00000E+000	5.50000E-001	1.41264E-003	7	...........	-327.66
	263	0.528	5.40770E-001	4.96042E-007	0.00000E+000	5.40000E-001	1.49540E-003	7	...........	-327.66
	264	0.53	5.30777E-001	2.09055E-007	0.00000E+000	5.30000E-001	1.51091E-003	7	...........	-327.66
	265	0.532	5.20763E-001	-4.99633E-008	0.00000E+000	5.20000E-001	1.49540E-003	7	...........	-327.66
	266	0.534	5.10758E-001	-2.86306E-007	0.00000E+000	5.10000E-001	1.46953E-003	7	...........	-327.66
	267	0.536	5.00815E-001	-5.03284E-007	0.00000E+000	5.00000E-001	1.41781E-003	7	...........	-327.66
	268	0.538	4.90761E-001	-7.01725E-007	0.00000E+000	4.90000E-001	1.38505E-003	7	...........	-327.66
	269	0.54	4.80763E-001	-8.86750E-007	0.00000E+000	4.80000E-001	1.37988E-003	7	...........	-327.66
	270	0.542	4.70801E-001	-1.05757E-006	0.00000E+000	4.70000E-001	1.44195E-003	7	...........	-327.66
	271	0.544	4.60779E-001	-1.21790E-006	0.00000E+000	4.60000E-001	1.46781E-003	7	...........	-327.66
	272	0.546	4.50820E-001	-1.36659E-006	0.00000E+000	4.50000E-001	1.41091E-003	7	...........	-327.66
	273	0.548	4.40758E-001	-1.50687E-006	0.00000E+000	4.40000E-001	1.50057E-003	7	...........	-327.66
	274	0.55	4.30796E-001	-1.63821E-006	0.00000E+000	4.30000E-001	1.45919E-003	7	...........	-327.66
	275	0.552	4.20799E-001	-1.76080E-006	0.00000E+000	4.20000E-001	1.39022E-003	7	...........	-327.66
	276	0.554	4.10783E-001	-1.87656E-006	0.00000E+000	4.10000E-001	1.40919E-003	7	...........	-327.66
	277	0.556	4.00785E-001	-1.98704E-006	0.00000E+000	4.00000E-001	1.43850E-003	7	...........	-327.66
	278	0.558	3.90788E-001	-2.09029E-006	0.00000E+000	3.90000E-001	1.47815E-003	7	...........	-327.66
	279	0.56	3.80801E-001	-2.18839E-006	0.00000E+000	3.80000E-001	1.52988E-003	7	...........	-327.66
	280	0.562	3.70832E-001	-2.28127E-006	0.00000E+000	3.70000E-001	1.48678E-003	7	...........	-327.66
	281	0.564	3.60783E-001	-2.37075E-006	0.00000E+000	3.60000E-001	1.50402E-003	7	...........	-327.66
	282	0.566	3.50806E-001	-2.45600E-006	0.00000E+000	3.50000E-001	1.41609E-003	7	...........	-327.66
	283	0.568	3.40821E-001	-2.53637E-006	0.00000E+000	3.40000E-001	1.47988E-003	7	...........	-327.66
	284	0.57	3.30807E-001	-2.61250E-006	0.00000E+000	3.30000E-001	1.39540E-003	7	...........	-327.66
	285	0.572	3.20796E-001	-2.68796E-006	0.00000E+000	3.20000E-001	1.47815E-003	7	...........	-327.66
	286	0.574	3.10805E-001	-2.75768E-006	0.00000E+000	3.10000E-001	1.47298E-003	7	...........	-327.66
	287	0.576	3.00808E-001	-2.82755E-006	0.00000E+000	3.00000E-001	1.46609E-003	7	...........	-327.66
	288	0.578	2.90785E-001	-2.89261E-006	0.00000E+000	2.90000E-001	1.42298E-003	7	...........	-327.66
	289	0.58	2.80787E-001	-2.95626E-006	0.00000E+000	2.80000E-001	1.41953E-003	7	...........	-327.66
	290	0.582	2.70842E-001	-3.01826E-006	0.00000E+000	2.70000E-001	1.45574E-003	7	...........	-327.66
	291	0.584	2.60787E-001	-3.07877E-006	0.00000E+000	2.60000E-001	1.44540E-003	7	...........	-327.66
	292	0.586	2.50856E-001	-3.13404E-006	0.00000E+000	2.50000E-001	1.50402E-003	7	...........	-327.66
	293	0.588	2.40798E-001	-3.19068E-006	0.00000E+000	2.40000E-001	1.45919E-003	7	...........	-327.66
	294	0.59	2.30810E-001	-3.24524E-006	0.00000E+000	2.30000E-001	1.40402E-003	7	...........	-327.66
	295	0.592	2.20820E-001	-3.29968E-006	0.00000E+000	2.20000E-001	1.43850E-003	7	...........	-327.66
	296	0.594	2.10805E-001	-3.35114E-006	0.00000E+000	2.10000E-001	1.47126E-003	7	...........	-327.66
	297	0.596	2.00822E-001	-3.40173E-006	0.00000E+000	2.00000E-001	1.44195E-003	7	...........	-327.66
	298	0.598	1.90858E-001	-3.45186E-006	0.00000E+000	1.90000E-001	1.44195E-003	7	...........	-327.66
	299	0.6	1.80829E-001	-3.50023E-006	0.00000E+000	1.80000E-001	1.46264E-003	7	...........	-327.66
	300	0.602	1.70857E-001	-3.54666E-006	0.00000E+000	1.70000E-001	1.39022E-003	7	...........	-327.66
	301	0.604	1.60817E-001	-3.59414E-006	0.00000E+000	1.60000E-001	1.42643E-003	7	...........	-327.66
	302	0.606	1.50835E-001	-3.63819E-006	0.00000E+000	1.50000E-001	1.50747E-003	7	...........	-327.66
	303	0.608	1.40882E-001	-3.68320E-006	0.00000E+000	1.40000E-001	1.43333E-003	7	...........	-327.66
	304	0.61	1.30836E-001	-3.72579E-006	0.00000E+000	1.30000E-001	1.45574E-003	7	...........	-327.66
	305	0.612	1.20814E-001	-3.76885E-006	0.00000E+000	1.20000E-001	1.42298E-003	7	...........	-327.66
	306	0.614	1.10830E-001	-3.81036E-006	0.00000E+000	1.10000E-001	1.40402E-003	7	...........	-327.66
	307	0.616	1.00821E-001	-3.85169E-006	0.00000E+000	1.00000E-001	1.50747E-003	7	...........	-327.66
	308	0.618	9.08894E-002	-3.89059E-006	0.00000E+000	9.00000E-002	1.46953E-003	7	...........	-327.66
	309	0.62	8.07963E-002	-3.92956E-006	0.00000E+000	8.00000E-002	1.45574E-003	7	...........	-327.66
	310	0.622	7.08351E-002	-3.96779E-006	0.00000E+000	7.00000E-002	1.47126E-003	7	...........	-327.66
	311	0.624	6.08351E-002	-4.00442E-006	0.00000E+000	6.00000E-002	1.51781E-003	7	...........	-327.66
	312	0.626	5.08316E-002	-4.04016E-006	0.00000E+000	5.00000E-002	1.41781E-003	7	...........	-327.66
	313	0.628	4.07920E-002	-4.07565E-006	0.00000E+000	4.00000E-002	1.43678E-003	7	...........	-327.66
	314	0.63	3.08359E-002	-4.11129E-006	0.00000E+000	3.00000E-002	1.47815E-003	7	...........	-327.66
	315	0.632	2.08359E-002	-4.14468E-006	0.00000E+000	2.00000E-002	1.37643E-003	7	...........	-327.66
	316	0.634	1.08713E-002	-4.17715E-006	0.00000E+000	9.99999E-003	1.49022E-003	7	...........	-327.66
	317	0.636	8.14376E-004	-4.20951E-006	0.00000E+000	-1.49012E-008	1.43850E-003	7	...........	-327.66
	318	0.638	-9.13649E-003	-4.23910E-006	0.00000E+000	-1.00000E-002	1.42126E-003	7	...........	-327.66
	319	0.64	-1.91477E-002	-4.27152E-006	0.00000E+000	-2.00000E-002	1.47126E-003	7	...........	-327.66
	320	0.642	-2.91667E-002	-4.29987E-006	0.00000E+000	-3.00000E-002	1.44712E-003	7	...........	-327.66
	321	0.644	-3.91261E-002	-4.32900E-006	0.00000E+000	-4.00000E-002	1.45919E-003	7	...........	-327.66
	322	0.646	-4.91899E-002	-4.35802E-006	0.00000E+000	-5.00000E-002	1.50057E-003	7	...........	-327.66
	323	0.648	-5.91761E-002	-4.38586E-006	0.00000E+000	-6.00000E-002	1.50574E-003	7	...........	-327.66
	324	0.65	-6.91279E-002	-4.41090E-006	0.00000E+000	-7.00000E-002	1.51436E-003	7	...........	-327.66
	325	0.652	-7.92003E-002	-4.43729E-006	0.00000E+000	-8.00000E-002	1.46264E-003	7	...........	-327.66
	326	0.654	-8.91382E-002	-4.46139E-006	0.00000E+000	-9.00000E-002	1.40747E-003	7	...........	-327.66
	327	0.656	-9.91813E-002	-4.48600E-006	0.00000E+000	-1.00000E-001	1.39367E-003	7	...........	-327.66
	328	0.658	-1.09159E-001	-4.50974E-006	0.00000E+000	-1.10000E-001	1.43333E-003	7	...........	-327.66
	329	0.66	-1.19159E-001	-4.53233E-006	0.00000E+000	-1.20000E-001	1.48160E-003	7	...........	-327.66
	330	0.662	-1.29189E-001	-4.55389E-006	0.00000E+000	-1.30000E-001	1.46609E-003	7	...........	-327.66
	331	0.664	-1.39151E-001	-4.57444E-006	0.00000E+000	-1.40000E-001	1.40747E-003	7	...........	-327.66
	332	0.666	-1.49190E-001	-4.59503E-006	0.00000E+000	-1.50000E-001	1.40057E-003	7	...........	-327.66
	333	0.668	-1.59191E-001	-4.61398E-006	0.00000E+000	-1.60000E-001	1.36781E-003	7	...........	-327.66
	334	0.67	-1.69143E-001	-4.63193E-006	0.00000E+000	-1.70000E-001	1.41264E-003	7	...........	-327.66
	335	0.672	-1.79174E-001	-4.64981E-006	0.00000E+000	-1.80000E-001	1.41436E-003	7	...........	-327.66
	336	0.674	-1.89102E-001	-4.66573E-006	0.00000E+000	-1.90000E-001	1.50747E-003	7	...........	-327.66
	337	0.676	-1.99199E-001	-4.68273E-006	0.00000E+000	-2.00000E-001	1.47643E-003	7	...........	-327.66
	338	0.678	-2.09150E-001	-4.69698E-006	0.00000E+000	-2.10000E-001	1.44712E-003	7	...........	-327.66
	339	0.68	-2.19088E-001	-4.71070E-006	0.00000E+000	-2.20000E-001	1.40747E-003	7	...........	-327.66
	340	0.682	-2.29145E-001	-4.72315E-006	0.00000E+000	-2.30000E-001	1.41091E-003	7	...........	-327.66
	341	0.684	-2.39168E-001	-4.73560E-006	0.00000E+000	-2.40000E-001	1.39540E-003	7	...........	-327.66
	342	0.686	-2.49139E-001	-4.74676E-006	0.00000E+000	-2.50000E-001	1.52298E-003	7	...........	-327.66
	343	0.688	-2.59145E-001	-4.75574E-006	0.00000E+000	-2.60000E-001	1.42815E-003	7	...........	-327.66
	344	0.69	-2.69094E-001	-4.76511E-006	0.00000E+000	-2.70000E-001	1.41091E-003	7	...........	-327.66
	345	0.692	-2.79148E-001	-4.77250E-006	0.00000E+000	-2.80000E-001	1.40402E-003	7	...........	-327.66
	346	0.694	-2.89133E-001	-4.77925E-006	0.00000E+000	-2.90000E-001	1.45919E-003	7	...........	-327.66
	347	0.696	-2.99115E-001	-4.78506E-006	0.00000E+000	-3.00000E-001	1.46609E-003	7	...........	-327.66
	348	0.698	-3.09145E-001	-4.78970E-006	0.00000E+000	-3.10000E-001	1.51091E-003	7	...........	-327.66
	349	0.7	-3.19171E-001	-4.79378E-006	0.00000E+000	-3.20000E-001	1.46609E-003	7	...........	-327.66
	350	0.702	-3.29180E-001	-4.79604E-006	0.00000E+000	-3.30000E-001	1.39195E-003	7	...........	-327.66
	351	0.704	-3.39168E-001	-4.79839E-006	0.00000E+000	-3.40000E-001	1.37988E-003	7	...........	-327.66
	352	0.706	-3.49141E-001	-4.79794E-006	0.00000E+000	-3.50000E-001	1.49540E-003	7	...........	-327.66
	353	0.708	-3.59169E-001	-4.79896E-006	0.00000E+000	-3.60000E-001	1.48333E-003	7	...........	-327.66
	354	0.71	-3.69056E-001	-4.79771E-006	0.00000E+000	-3.70000E-001	1.42471E-003	7	...........	-327.66
	355	0.712	-3.79161E-001	-4.79664E-006	0.00000E+000	-3.80000E-001	1.44712E-003	7	...........	-327.66
	356	0.714	-3.89115E-001	-4.79345E-006	0.00000E+000	-3.90000E-001	1.47126E-003	7	...........	-327.66
	357	0.716	-3.99130E-001	-4.79177E-006	0.00000E+000	-4.00000E-001	1.43160E-003	7	...........	-327.66
	358	0.718	-4.09130E-001	-4.78764E-006	0.00000E+000	-4.10000E-001	1.45574E-003	7	...........	-327.66
	359	0.72	-4.19094E-001	-4.78442E-006	0.00000E+000	-4.20000E-001	1.44022E-003	7	...........	-327.66
	360	0.722	-4.29120E-001	-4.77963E-006	0.00000E+000	-4.30000E-001	1.41091E-003	7	...........	-327.66
	361	0.724	-4.39165E-001	-4.77421E-006	0.00000E+000	-4.40000E-001	1.44884E-003	7	...........	-327.66
	362	0.726	-4.49071E-001	-4.76945E-006	0.00000E+000	-4.50000E-001	1.40402E-003	7	...........	-327.66
	363	0.728	-4.59140E-001	-4.76354E-006	0.00000E+000	-4.60000E-001	1.39712E-003	7	...........	-327.66
	364	0.73	-4.69055E-001	-4.75767E-006	0.00000E+000	-4.70000E-001	1.44022E-003	7	...........	-327.66
	365	0.732	-4.79104E-001	-4.75252E-006	0.00000E+000	-4.80000E-001	1.42815E-003	7	...........	-327.66
	366	0.734	-4.89131E-001	-4.74498E-006	0.00000E+000	-4.90000E-001	1.45574E-003	7	...........	-327.66
	367	0.736	-4.99044E-001	-4.73840E-006	0.00000E+000	-5.00000E-001	1.46091E-003	7	...........	-327.66
	368	0.738	-5.09123E-001	-4.73019E-006	0.00000E+000	-5.10000E-001	1.44712E-003	7	...........	-327.66
	369	0.74	-5.19167E-001	-4.72063E-006	0.00000E+000	-5.20000E-001	1.45402E-003	7	...........	-327.66
	370	0.742	-5.29112E-001	-4.71018E-006	0.00000E+000	-5.30000E-001	1.45057E-003	7	...........	-327.66
	371	0.744	-5.39156E-001	-4.69817E-006	0.00000E+000	-5.40000E-001	1.47126E-003	7	...........	-327.66
	372	0.746	-5.49073E-001	-4.68228E-006	0.00000E+000	-5.50000E-001	1.42988E-003	7	...........	-327.66
	373	0.748	-5.59142E-001	-4.66466E-006	0.00000E+000	-5.60000E-001	1.40747E-003	7	...........	-327.66
	374	0.75	-5.69110E-001	-4.64250E-006	0.00000E+000	-5.70000E-001	1.46436E-003	7	...........	-327.66
	375	0.752	-5.79073E-001	-4.61614E-006	0.00000E+000	-5.80000E-001	1.45574E-003	7	...........	-327.66
[...]
	701	1.404	-8.39133E-001	-1.50861E-006	0.00000E+000	-8.40000E-001	1.45229E-003	7	...........	-327.66
	702	1.406	-8.49152E-001	-1.42524E-006	0.00000E+000	-8.50000E-001	1.46609E-003	7	...........	-327.66
	703	1.408	-8.59083E-001	-1.34674E-006	0.00000E+000	-8.60000E-001	1.52471E-003	7	...........	-327.66
	704	1.41	-8.69151E-001	-1.28103E-006	0.00000E+000	-8.70000E-001	1.44367E-003	7	...........	-327.66
	705	1.412	-8.79172E-001	-1.22221E-006	0.00000E+000	-8.80000E-001	1.46781E-003	7	...........	-327.66
	706	1.414	-8.89108E-001	-1.16506E-006	0.00000E+000	-8.90000E-001	1.44367E-003	7	...........	-327.66
	707	1.416	-8.99143E-001	-1.11742E-006	0.00000E+000	-9.00000E-001	1.44022E-003	7	...........	-327.66
	708	1.418	-8.90656E-001	-9.81366E-007	0.00000E+000	-8.90000E-001	1.42126E-003	7	...........	-327.66
	709	1.42	-8.80707E-001	-8.78766E-007	0.00000E+000	-8.80000E-001	1.47988E-003	7	...........	-327.66
	710	1.422	-8.70687E-001	-8.02169E-007	0.00000E+000	-8.70000E-001	1.45574E-003	7	...........	-327.66
	711	1.424	-8.60676E-001	-7.34367E-007	0.00000E+000	-8.60000E-001	1.49367E-003	7	...........	-327.66
	712	1.426	-8.50693E-001	-6.77773E-007	0.00000E+000	-8.50000E-001	1.46781E-003	7	...........	-327.66
	713	1.428	-8.40700E-001	-6.26007E-007	0.00000E+000	-8.40000E-001	1.39884E-003	7	...........	-327.66
	714	1.43	-8.30592E-001	-5.78139E-007	0.00000E+000	-8.30000E-001	1.44367E-003	7	...........	-327.66
	715	1.432	-8.20691E-001	-5.34340E-007	0.00000E+000	-8.20000E-001	1.48678E-003	7	...........	-327.66
	716	1.434	-8.10624E-001	-4.86195E-007	0.00000E+000	-8.10000E-001	1.48850E-003	7	...........	-327.66
	717	1.436	-8.00686E-001	-4.46638E-007	0.00000E+000	-8.00000E-001	1.49540E-003	7	...........	-327.66
	718	1.438	-7.90641E-001	-4.02684E-007	0.00000E+000	-7.90000E-001	1.52298E-003	7	...........	-327.66
	719	1.44	-7.80555E-001	-3.55764E-007	0.00000E+000	-7.80000E-001	1.48505E-003	7	...........	-327.66
	720	1.442	-7.70664E-001	-3.11068E-007	0.00000E+000	-7.70000E-001	1.44195E-003	7	...........	-327.66
	721	1.444	-7.60670E-001	-2.61009E-007	0.00000E+000	-7.60000E-001	1.47988E-003	7	...........	-327.66
	722	1.446	-7.50654E-001	-2.08019E-007	0.00000E+000	-7.50000E-001	1.49022E-003	7	...........	-327.66
	723	1.448	-7.40741E-001	-1.50891E-007	0.00000E+000	-7.40000E-001	1.40229E-003	7	...........	-327.66
	724	1.45	-7.30680E-001	-8.91411E-008	0.00000E+000	-7.30000E-001	1.47126E-003	7	...........	-327.66
	725	1.452	-7.20717E-001	-2.14767E-008	0.00000E+000	-7.20000E-001	1.49022E-003	7	...........	-327.66
	726	1.454	-7.10680E-001	5.35163E-008	0.00000E+000	-7.10000E-001	1.50747E-003	7	...........	-327.66
	727	1.456	-7.00703E-001	1.34838E-007	0.00000E+000	-7.00000E-001	1.48333E-003	7	...........	-327.66
	728	1.458	-6.90704E-001	2.25540E-007	0.00000E+000	-6.90000E-001	1.44540E-003	7	...........	-327.66
	729	1.46	-6.80697E-001	3.25105E-007	0.00000E+000	-6.80000E-001	1.51953E-003	7	...........	-327.66
	730	1.462	-6.70643E-001	4.34792E-007	0.00000E+000	-6.70000E-001	1.48850E-003	7	...........	-327.66
	731	1.464	-6.60701E-001	5.56361E-007	0.00000E+000	-6.60000E-001	1.44884E-003	7	...........	-327.66
	732	1.466	-6.50682E-001	6.89189E-007	0.00000E+000	-6.50000E-001	1.44367E-003	7	...........	-327.66
	733	1.468	-6.40730E-001	8.37330E-007	0.00000E+000	-6.40000E-001	1.39540E-003	7	...........	-327.66
	734	1.47	-6.30669E-001	1.00240E-006	0.00000E+000	-6.30000E-001	1.42471E-003	7	...........	-327.66
	735	1.472	-6.20718E-001	1.18076E-006	0.00000E+000	-6.20000E-001	1.38333E-003	7	...........	-327.66
	736	1.474	-6.10743E-001	1.37673E-006	0.00000E+000	-6.10000E-001	1.45574E-003	7	...........	-327.66
	737	1.476	-6.00719E-001	1.59202E-006	0.00000E+000	-6.00000E-001	1.48850E-003	7	...........	-327.66
	738	1.478	-5.90738E-001	1.82514E-006	0.00000E+000	-5.90000E-001	1.51781E-003	7	...........	-327.66
	739	1.48	-5.80698E-001	2.08041E-006	0.00000E+000	-5.80000E-001	1.46953E-003	7	...........	-327.66
	740	1.482	-5.70751E-001	2.35623E-006	0.00000E+000	-5.70000E-001	1.40574E-003	7	...........	-327.66
	741	1.484	-5.60791E-001	2.64882E-006	0.00000E+000	-5.60000E-001	1.40229E-003	7	...........	-327.66
	742	1.486	-5.50655E-001	2.96229E-006	0.00000E+000	-5.50000E-001	1.43505E-003	7	...........	-327.66
	743	1.488	-5.40757E-001	3.29280E-006	0.00000E+000	-5.40000E-001	1.43850E-003	7	...........	-327.66
	744	1.49	-5.30755E-001	3.62868E-006	0.00000E+000	-5.30000E-001	1.48850E-003	7	...........	-327.66
	745	1.492	-5.20758E-001	3.96722E-006	0.00000E+000	-5.20000E-001	1.46781E-003	7	...........	-327.66
	746	1.494	-5.10766E-001	4.29949E-006	0.00000E+000	-5.10000E-001	1.48678E-003	7	...........	-327.66
	747	1.496	-5.00696E-001	4.60027E-006	0.00000E+000	-5.00000E-001	1.41781E-003	7	...........	-327.66
	748	1.498	-4.90760E-001	4.86615E-006	0.00000E+000	-4.90000E-001	1.43850E-003	7	...........	-327.66
	749	1.5	-4.80745E-001	5.08165E-006	0.00000E+000	-4.80000E-001	1.42471E-003	7	...........	-327.66
	750	1.502	-4.70690E-001	5.23805E-006	0.00000E+000	-4.70000E-001	1.39540E-003	7	...........	-327.66
	751	1.504	-4.60779E-001	5.33211E-006	0.00000E+000	-4.60000E-001	1.45747E-003	7	...........	-327.66
	752	1.506	-4.50729E-001	5.36946E-006	0.00000E+000	-4.50000E-001	1.50057E-003	7	...........	-327.66
	753	1.508	-4.40766E-001	5.35908E-006	0.00000E+000	-4.40000E-001	1.44884E-003	7	...........	-327.66
	754	1.51	-4.30756E-001	5.31089E-006	0.00000E+000	-4.30000E-001	1.43160E-003	7	...........	-327.66
	755	1.512	-4.20767E-001	5.23595E-006	0.00000E+000	-4.20000E-001	1.41264E-003	7	...........	-327.66
	756	1.514	-4.10777E-001	5.14718E-006	0.00000E+000	-4.10000E-001	1.41436E-003	7	...........	-327.66
	757	1.516	-4.00779E-001	5.05347E-006	0.00000E+000	-4.00000E-001	1.38160E-003	7	...........	-327.66
	758	1.518	-3.90739E-001	4.95924E-006	0.00000E+000	-3.90000E-001	1.44195E-003	7	...........	-327.66
	759	1.52	-3.80794E-001	4.87110E-006	0.00000E+000	-3.80000E-001	1.40747E-003	7	...........	-327.66
	760	1.522	-3.70767E-001	4.79159E-006	0.00000E+000	-3.70000E-001	1.41781E-003	7	...........	-327.66
	761	1.524	-3.60795E-001	4.72089E-006	0.00000E+000	-3.60000E-001	1.46091E-003	7	...........	-327.66
	762	1.526	-3.50765E-001	4.65837E-006	0.00000E+000	-3.50000E-001	1.52815E-003	7	...........	-327.66
	763	1.528	-3.40797E-001	4.60474E-006	0.00000E+000	-3.40000E-001	1.39884E-003	7	...........	-327.66
	764	1.53	-3.30815E-001	4.55891E-006	0.00000E+000	-3.30000E-001	1.50229E-003	7	...........	-327.66
	765	1.532	-3.20780E-001	4.52247E-006	0.00000E+000	-3.20000E-001	1.45057E-003	7	...........	-327.66
	766	1.534	-3.10761E-001	4.49193E-006	0.00000E+000	-3.10000E-001	1.47988E-003	7	...........	-327.66
	767	1.536	-3.00779E-001	4.46769E-006	0.00000E+000	-3.00000E-001	1.49712E-003	7	...........	-327.66
	768	1.538	-2.90768E-001	4.44812E-006	0.00000E+000	-2.90000E-001	1.49367E-003	7	...........	-327.66
	769	1.54	-2.80766E-001	4.43246E-006	0.00000E+000	-2.80000E-001	1.44540E-003	7	...........	-327.66
	770	1.542	-2.70725E-001	4.41790E-006	0.00000E+000	-2.70000E-001	1.47126E-003	7	...........	-327.66
	771	1.544	-2.60780E-001	4.40340E-006	0.00000E+000	-2.60000E-001	1.52126E-003	7	...........	-327.66
	772	1.546	-2.50795E-001	4.39100E-006	0.00000E+000	-2.50000E-001	1.49884E-003	7	...........	-327.66
	773	1.548	-2.40782E-001	4.37930E-006	0.00000E+000	-2.40000E-001	1.45057E-003	7	...........	-327.66
	774	1.55	-2.30766E-001	4.36729E-006	0.00000E+000	-2.30000E-001	1.52471E-003	7	...........	-327.66
	775	1.552	-2.20726E-001	4.35648E-006	0.00000E+000	-2.20000E-001	1.44022E-003	7	...........	-327.66
	776	1.554	-2.10776E-001	4.34786E-006	0.00000E+000	-2.10000E-001	1.46609E-003	7	...........	-327.66
	777	1.556	-2.00836E-001	4.33803E-006	0.00000E+000	-2.00000E-001	1.48850E-003	7	...........	-327.66
	778	1.558	-1.90733E-001	4.33055E-006	0.00000E+000	-1.90000E-001	1.48160E-003	7	...........	-327.66
	779	1.56	-1.80799E-001	4.32275E-006	0.00000E+000	-1.80000E-001	1.49712E-003	7	...........	-327.66
	780	1.562	-1.70808E-001	4.31727E-006	0.00000E+000	-1.70000E-001	1.50574E-003	7	...........	-327.66
	781	1.564	-1.60790E-001	4.31137E-006	0.00000E+000	-1.60000E-001	1.47988E-003	7	...........	-327.66
	782	1.566	-1.50805E-001	4.30558E-006	0.00000E+000	-1.50000E-001	1.49022E-003	7	...........	-327.66
	783	1.568	-1.40782E-001	4.30208E-006	0.00000E+000	-1.40000E-001	1.52298E-003	7	...........	-327.66
	784	1.57	-1.30822E-001	4.29797E-006	0.00000E+000	-1.30000E-001	1.44540E-003	7	...........	-327.66
	785	1.572	-1.20806E-001	4.29365E-006	0.00000E+000	-1.20000E-001	1.42988E-003	7	...........	-327.66
	786	1.574	-1.10811E-001	4.29021E-006	0.00000E+000	-1.10000E-001	1.46091E-003	7	...........	-327.66
	787	1.576	-1.00800E-001	4.28637E-006	0.00000E+000	-1.00000E-001	1.42643E-003	7	...........	-327.66
	788	1.578	-9.07882E-002	4.28364E-006	0.00000E+000	-9.00000E-002	1.47471E-003	7	...........	-327.66
	789	1.58	-8.08020E-002	4.27928E-006	0.00000E+000	-8.00000E-002	1.46264E-003	7	...........	-327.66
	790	1.582	-7.07693E-002	4.27535E-006	0.00000E+000	-7.00000E-002	1.41781E-003	7	...........	-327.66
	791	1.584	-6.07598E-002	4.27149E-006	0.00000E+000	-6.00000E-002	1.47471E-003	7	...........	-327.66
	792	1.586	-5.08089E-002	4.26885E-006	0.00000E+000	-5.00000E-002	1.47471E-003	7	...........	-327.66
	793	1.588	-4.07787E-002	4.26475E-006	0.00000E+000	-4.00000E-002	1.42988E-003	7	...........	-327.66
	794	1.59	-3.07856E-002	4.26099E-006	0.00000E+000	-3.00000E-002	1.45057E-003	7	...........	-327.66
	795	1.592	-2.07960E-002	4.25481E-006	0.00000E+000	-2.00000E-002	1.41091E-003	7	...........	-327.66
	796	1.594	-1.07882E-002	4.24976E-006	0.00000E+000	-1.00000E-002	1.45919E-003	7	...........	-327.66
	797	1.596	-8.06313E-004	4.24510E-006	0.00000E+000	-1.49012E-008	1.47988E-003	7	...........	-327.66
	798	1.598	9.23420E-003	4.23936E-006	0.00000E+000	9.99999E-003	1.43850E-003	7	...........	-327.66
	799	1.6	1.92368E-002	4.23184E-006	0.00000E+000	2.00000E-002	1.43333E-003	7	...........	-327.66
	800	1.602	2.92066E-002	4.22615E-006	0.00000E+000	3.00000E-002	1.43678E-003	7	...........	-327.66
	801	1.604	3.91333E-002	4.21958E-006	0.00000E+000	4.00000E-002	1.39022E-003	7	...........	-327.66
	802	1.606	4.92170E-002	4.21162E-006	0.00000E+000	5.00000E-002	1.48850E-003	7	...........	-327.66
	803	1.608	5.92161E-002	4.20391E-006	0.00000E+000	6.00000E-002	1.42471E-003	7	...........	-327.66
	804	1.61	6.92394E-002	4.19549E-006	0.00000E+000	7.00000E-002	1.47471E-003	7	...........	-327.66
	805	1.612	7.92066E-002	4.18603E-006	0.00000E+000	8.00000E-002	1.43678E-003	7	...........	-327.66
	806	1.614	8.92626E-002	4.17692E-006	0.00000E+000	9.00000E-002	1.41781E-003	7	...........	-327.66
	807	1.616	9.92152E-002	4.16575E-006	0.00000E+000	1.00000E-001	1.43505E-003	7	...........	-327.66
	808	1.618	1.09214E-001	4.15680E-006	0.00000E+000	1.10000E-001	1.45919E-003	7	...........	-327.66
	809	1.62	1.19207E-001	4.14566E-006	0.00000E+000	1.20000E-001	1.45574E-003	7	...........	-327.66
	810	1.622	1.29239E-001	4.13585E-006	0.00000E+000	1.30000E-001	1.42471E-003	7	...........	-327.66
	811	1.624	1.39260E-001	4.12488E-006	0.00000E+000	1.40000E-001	1.39195E-003	7	...........	-327.66
	812	1.626	1.49248E-001	4.11398E-006	0.00000E+000	1.50000E-001	1.43333E-003	7	...........	-327.66
	813	1.628	1.59213E-001	4.10324E-006	0.00000E+000	1.60000E-001	1.43850E-003	7	...........	-327.66
	814	1.63	1.69263E-001	4.09145E-006	0.00000E+000	1.70000E-001	1.49367E-003	7	...........	-327.66
	815	1.632	1.79208E-001	4.08056E-006	0.00000E+000	1.80000E-001	1.47643E-003	7	...........	-327.66
	816	1.634	1.89224E-001	4.06979E-006	0.00000E+000	1.90000E-001	1.42298E-003	7	...........	-327.66
	817	1.636	1.99221E-001	4.05898E-006	0.00000E+000	2.00000E-001	1.49022E-003	7	...........	-327.66
	818	1.638	2.09195E-001	4.04816E-006	0.00000E+000	2.10000E-001	1.49540E-003	7	...........	-327.66
	819	1.64	2.19201E-001	4.03742E-006	0.00000E+000	2.20000E-001	1.49195E-003	7	...........	-327.66
	820	1.642	2.29208E-001	4.02626E-006	0.00000E+000	2.30000E-001	1.49022E-003	7	...........	-327.66
	821	1.644	2.39199E-001	4.01628E-006	0.00000E+000	2.40000E-001	1.38678E-003	7	...........	-327.66
	822	1.646	2.49235E-001	4.00654E-006	0.00000E+000	2.50000E-001	1.47471E-003	7	...........	-327.66
	823	1.648	2.59191E-001	3.99454E-006	0.00000E+000	2.60000E-001	1.43505E-003	7	...........	-327.66
	824	1.65	2.69222E-001	3.98633E-006	0.00000E+000	2.70000E-001	1.45402E-003	7	...........	-327.66
	825	1.652	2.79175E-001	3.97783E-006	0.00000E+000	2.80000E-001	1.39712E-003	7	...........	-327.66
	826	1.654	2.89190E-001	3.96960E-006	0.00000E+000	2.90000E-001	1.40919E-003	7	...........	-327.66
	827	1.656	2.99193E-001	3.96098E-006	0.00000E+000	3.00000E-001	1.50057E-003	7	...........	-327.66
	828	1.658	3.09185E-001	3.95484E-006	0.00000E+000	3.10000E-001	1.49712E-003	7	...........	-327.66
	829	1.66	3.19189E-001	3.94741E-006	0.00000E+000	3.20000E-001	1.45057E-003	7	...........	-327.66
	830	1.662	3.29208E-001	3.94277E-006	0.00000E+000	3.30000E-001	1.50057E-003	7	...........	-327.66
	831	1.664	3.39199E-001	3.93753E-006	0.00000E+000	3.40000E-001	1.45574E-003	7	...........	-327.66
	832	1.666	3.49242E-001	3.93355E-006	0.00000E+000	3.50000E-001	1.45574E-003	7	...........	-327.66
	833	1.668	3.59183E-001	3.93098E-006	0.00000E+000	3.60000E-001	1.49022E-003	7	...........	-327.66
	834	1.67	3.69214E-001	3.92922E-006	0.00000E+000	3.70000E-001	1.39367E-003	7	...........	-327.66
	835	1.672	3.79193E-001	3.92830E-006	0.00000E+000	3.80000E-001	1.50229E-003	7	...........	-327.66
	836	1.674	3.89159E-001	3.92725E-006	0.00000E+000	3.90000E-001	1.49195E-003	7	...........	-327.66
	837	1.676	3.99194E-001	3.92973E-006	0.00000E+000	4.00000E-001	1.41953E-003	7	...........	-327.66
	838	1.678	4.09173E-001	3.93172E-006	0.00000E+000	4.10000E-001	1.42988E-003	7	...........	-327.66
	839	1.68	4.19195E-001	3.93487E-006	0.00000E+000	4.20000E-001	1.49022E-003	7	...........	-327.66
	840	1.682	4.29184E-001	3.93982E-006	0.00000E+000	4.30000E-001	1.41781E-003	7	...........	-327.66
	841	1.684	4.39155E-001	3.94591E-006	0.00000E+000	4.40000E-001	1.45402E-003	7	...........	-327.66
	842	1.686	4.49224E-001	3.95420E-006	0.00000E+000	4.50000E-001	1.48850E-003	7	...........	-327.66
	843	1.688	4.59202E-001	3.96327E-006	0.00000E+000	4.60000E-001	1.49195E-003	7	...........	-327.66
	844	1.69	4.69152E-001	3.97245E-006	0.00000E+000	4.70000E-001	1.46091E-003	7	...........	-327.66
	845	1.692	4.79172E-001	3.98367E-006	0.00000E+000	4.80000E-001	1.48160E-003	7	...........	-327.66
	846	1.694	4.89170E-001	3.99707E-006	0.00000E+000	4.90000E-001	1.40057E-003	7	...........	-327.66
	847	1.696	4.99210E-001	4.01133E-006	0.00000E+000	5.00000E-001	1.49712E-003	7	...........	-327.66
	848	1.698	5.09147E-001	4.02661E-006	0.00000E+000	5.10000E-001	1.41609E-003	7	...........	-327.66
	849	1.7	5.19135E-001	4.04315E-006	0.00000E+000	5.20000E-001	1.42298E-003	7	...........	-327.66
	850	1.702	5.29201E-001	4.06258E-006	0.00000E+000	5.30000E-001	1.42471E-003	7	...........	-327.66
	851	1.704	5.39170E-001	4.08179E-006	0.00000E+000	5.40000E-001	1.42643E-003	7	...........	-327.66
	852	1.706	5.49199E-001	4.10240E-006	0.00000E+000	5.50000E-001	1.53678E-003	7	...........	-327.66
	853	1.708	5.59193E-001	4.12478E-006	0.00000E+000	5.60000E-001	1.43505E-003	7	...........	-327.66
	854	1.71	5.69175E-001	4.14649E-006	0.00000E+000	5.70000E-001	1.39884E-003	7	...........	-327.66
	855	1.712	5.79186E-001	4.16720E-006	0.00000E+000	5.80000E-001	1.48333E-003	7	...........	-327.66
	856	1.714	5.89163E-001	4.19070E-006	0.00000E+000	5.90000E-001	1.46264E-003	7	...........	-327.66
	857	1.716	5.99165E-001	4.21412E-006	0.00000E+000	6.00000E-001	1.43333E-003	7	...........	-327.66
CURVE4	TABLE
	Pt	T	Vf	Im	Vu	Sig	Ach	IERange	Over	Temp
	#	s	V vs. Ref.	A	V	V	V	#	bits	deg C
	858	1.718	5.90751E-001	2.82858E-006	0.00000E+000	5.90000E-001	1.40574E-003	7	...........	-327.66
	859	1.72	5.80750E-001	2.07888E-006	0.00000E+000	5.80000E-001	1.45402E-003	7	...........	-327.66
	860	1.722	5.70751E-001	1.53372E-006	0.00000E+000	5.70000E-001	1.48333E-003	7	...........	-327.66
	861	1.724	5.60740E-001	1.09085E-006	0.00000E+000	5.60000E-001	1.43505E-003	7	...........	-327.66
	862	1.726	5.50753E-001	7.11830E-007	0.00000E+000	5.50000E-001	1.37126E-003	7	...........	-327.66
	863	1.728	5.40773E-001	3.81199E-007	0.00000E+000	5.40000E-001	1.41264E-003	7	...........	-327.66
	864	1.73	5.30779E-001	8.59173E-008	0.00000E+000	5.30000E-001	1.44884E-003	7	...........	-327.66
	865	1.732	5.20755E-001	-1.81033E-007	0.00000E+000	5.20000E-001	1.48505E-003	7	...........	-327.66
	866	1.734	5.10771E-001	-4.21428E-007	0.00000E+000	5.10000E-001	1.46091E-003	7	...........	-327.66
	867	1.736	5.00814E-001	-6.41596E-007	0.00000E+000	5.00000E-001	1.42126E-003	7	...........	-327.66
	868	1.738	4.90752E-001	-8.44089E-007	0.00000E+000	4.90000E-001	1.42126E-003	7	...........	-327.66
	869	1.74	4.80752E-001	-1.03048E-006	0.00000E+000	4.80000E-001	1.42643E-003	7	...........	-327.66
	870	1.742	4.70770E-001	-1.20288E-006	0.00000E+000	4.70000E-001	1.40057E-003	7	...........	-327.66
	871	1.744	4.60785E-001	-1.36325E-006	0.00000E+000	4.60000E-001	1.40229E-003	7	...........	-327.66
	872	1.746	4.50820E-001	-1.51215E-006	0.00000E+000	4.50000E-001	1.39884E-003	7	...........	-327.66
	873	1.748	4.40754E-001	-1.65296E-006	0.00000E+000	4.40000E-001	1.42298E-003	7	...........	-327.66
	874	1.75	4.30773E-001	-1.78263E-006	0.00000E+000	4.30000E-001	1.39195E-003	7	...........	-327.66
	875	1.752	4.20814E-001	-1.90399E-006	0.00000E+000	4.20000E-001	1.49195E-003	7	...........	-327.66
	876	1.754	4.10773E-001	-2.01797E-006	0.00000E+000	4.10000E-001	1.45574E-003	7	...........	-327.66
	877	1.756	4.00813E-001	-2.12621E-006	0.00000E+000	4.00000E-001	1.49884E-003	7	...........	-327.66
	878	1.758	3.90802E-001	-2.22986E-006	0.00000E+000	3.90000E-001	1.49367E-003	7	...........	-327.66
	879	1.76	3.80807E-001	-2.32503E-006	0.00000E+000	3.80000E-001	1.49884E-003	7	...........	-327.66
	880	1.762	3.70825E-001	-2.41523E-006	0.00000E+000	3.70000E-001	1.46436E-003	7	...........	-327.66
	881	1.764	3.60782E-001	-2.50318E-006	0.00000E+000	3.60000E-001	1.46953E-003	7	...........	-327.66
	882	1.766	3.50814E-001	-2.58598E-006	0.00000E+000	3.50000E-001	1.42988E-003	7	...........	-327.66
	883	1.768	3.40817E-001	-2.66354E-006	0.00000E+000	3.40000E-001	1.50402E-003	7	...........	-327.66
	884	1.77	3.30827E-001	-2.73766E-006	0.00000E+000	3.30000E-001	1.46091E-003	7	...........	-327.66
	885	1.772	3.20792E-001	-2.80886E-006	0.00000E+000	3.20000E-001	1.47643E-003	7	...........	-327.66
	886	1.774	3.10783E-001	-2.87783E-006	0.00000E+000	3.10000E-001	1.48678E-003	7	...........	-327.66
	887	1.776	3.00811E-001	-2.94422E-006	0.00000E+000	3.00000E-001	1.53160E-003	7	...........	-327.66
	888	1.778	2.90810E-001	-3.00669E-006	0.00000E+000	2.90000E-001	1.49540E-003	7	...........	-327.66
	889	1.78	2.80790E-001	-3.06824E-006	0.00000E+000	2.80000E-001	1.50574E-003	7	...........	-327.66
	890	1.782	2.70854E-001	-3.12706E-006	0.00000E+000	2.70000E-001	1.46264E-003	7	...........	-327.66
	891	1.784	2.60792E-001	-3.18375E-006	0.00000E+000	2.60000E-001	1.46781E-003	7	...........	-327.66
	892	1.786	2.50825E-001	-3.23747E-006	0.00000E+000	2.50000E-001	1.44540E-003	7	...........	-327.66
	893	1.788	2.40809E-001	-3.29189E-006	0.00000E+000	2.40000E-001	1.42126E-003	7	...........	-327.66
	894	1.79	2.30791E-001	-3.34271E-006	0.00000E+000	2.30000E-001	1.42988E-003	7	...........	-327.66
	895	1.792	2.20832E-001	-3.39342E-006	0.00000E+000	2.20000E-001	1.48333E-003	7	...........	-327.66
	896	1.794	2.10789E-001	-3.44260E-006	0.00000E+000	2.10000E-001	1.47988E-003	7	...........	-327.66
	897	1.796	2.00825E-001	-3.48990E-006	0.00000E+000	2.00000E-001	1.43333E-003	7	...........	-327.66
	898	1.798	1.90842E-001	-3.53642E-006	0.00000E+000	1.90000E-001	1.41091E-003	7	...........	-327.66
	899	1.8	1.80820E-001	-3.58196E-006	0.00000E+000	1.80000E-001	1.50229E-003	7	...........	-327.66
	900	1.802	1.70895E-001	-3.62638E-006	0.00000E+000	1.70000E-001	1.41953E-003	7	...........	-327.66