File: Test_Data_Files/20250509_IF0011_IIA42_PBSair_E02_D_CV5000_PEDOT.DTA
EXPLAIN
TAG	CV
TITLE	LABEL	CV5000	Test Identifier
DATE	LABEL	5/9/2025	Date
TIME	LABEL	14:36:49	Time
NOTES	NOTES	1	Notes...

PSTAT	PSTAT	REF600P-43058	Potentiostat
VINIT	POTEN	0.00000E+000	T	Initial E (V)
VLIMIT1	POTEN	-9.00000E-001	F	Scan Limit 1 (V)
VLIMIT2	POTEN	6.00000E-001	F	Scan Limit 2 (V)
VFINAL	POTEN	0.00000E+000	T	Final E (V)
SCANRATE	QUANT	4.99999E+003	Scan Rate (mV/s)
STEPSIZE	QUANT	1.00000E+001	Step Size (mV)
CYCLES	IQUANT	3	Cycles (#)
IMODE	SELECTOR	1	I/E Range Mode
IRANGE	QUANT	1.00000E-002	Max Current (mA)
AREA	QUANT	1.00000E+000	Sample Area (cm^2)
EQDELAY	QUANT	5.00000E+000	Equil. Time (s)
IRCOMP	SELECTOR	0	IRComp
PFCOR	QUANT	5.00000E+001	PF Corr. (ohm)
SAMPLINGMODE	SELECTOR	2	Sampling Mode
EOC	QUANT	0.1869809	Open Circuit (V)
ELECTRODETYPE	SELECTOR	0	Electrode Type
STRIPPING	TOGGLE	F	Used for Stripping
SEQUENCER	TOGGLE	TRUE	Run as Sequence
PSTATMODEL	IQUANT	7	Pstat Model
PSTATSECTION	LABEL	REF600P-43058	Pstat Section
PSTATSERIALNO	LABEL	43058	Pstat Serial Number
CTRLMODE	IQUANT	1	Control Mode
ELECTROMETER	IQUANT	0	RE=0 or CS=1
IESTAB	IQUANT	2	I/E Stability
CASPEED	IQUANT	4	Control Amp Speed
CONVENTION	IQUANT	1	Current Convention
ICHRANGE	IQUANT	2	Ich Range
ICHRANGEMODE	TOGGLE	F	Ich Auto Range
ICHOFFSETENABLE	TOGGLE	F	Ich Offset Enable
ICHOFFSET	QUANT	0	Ich Offset (V)
ICHFILTER	IQUANT	2	Ich Filter
VCHRANGE	IQUANT	2	Vch Range
VCHRANGEMODE	TOGGLE	F	Vch Auto Range
VCHOFFSETENABLE	TOGGLE	F	Vch Offset Enable
VCHOFFSET	QUANT	0	Vch Offset (V)
VCHFILTER	IQUANT	2	Vch Filter
ACHRANGE	IQUANT	2	Ach Range
ACHOFFSETENABLE	TOGGLE	F	Ach Offset Enable
ACHOFFSET	QUANT	0	Ach Offset (V)
ACHFILTER	IQUANT	1	Ach Filter
IERANGELOWERLIMIT	IQUANT	1	I/E Range Lower Limit
IERANGEMODE	TOGGLE	F	I/E AutoRange
IERANGE	IQUANT	7	I/E Range
POSFEEDENABLE	TOGGLE	F	Positive Feedback IR Comp
POSFEEDRESISTANCE	QUANT	0	Positive Feedback Resistance (ohm)
ACHSELECT	IQUANT	4	Ach Select
SENSECABLEID	IQUANT	7	Sense Cable ID
PWRCABLEID	IQUANT	7	Power Cable ID
DCCALDATE	LABEL	5/8/2025	DC Calibration Date
ACCALDATE	LABEL	5/8/2025	AC Calibration Date
THERMOSELECT	IQUANT	1	Thermo Select
FRAMEWORKVERSION	LABEL	7.10.4	Framework Version
INSTRUMENTVERSION	LABEL	5.01	Instrument Version
COMMVERSION	LABEL	5.10	Communications Version
CPUPLDVERSION	LABEL	6.00	CPU PLD Version
CTRLPLDVERSION	LABEL	3.21	CTRL PLD Version
PSTATPLDVERSION	LABEL	0.00	PSTAT PLD Version
CURVE1	TABLE
	Pt	T	Vf	Im	Vu	Sig	Ach	IERange	Over	Temp
	#	s	V vs. Ref.	A	V	V	V	#	bits	deg C
	0	0.002	1.87032E-001	9.71724E-009	0.00000E+000	1.87000E-001	1.37988E-003	7	...........	-327.66
	1	0.004	1.77818E-001	-6.57132E-007	0.00000E+000	1.77000E-001	1.37126E-003	7	...........	-327.66
	2	0.006	1.67916E-001	-9.91230E-007	0.00000E+000	1.67000E-001	1.40057E-003	7	...........	-327.66
	3	0.008	1.57823E-001	-1.23080E-006	0.00000E+000	1.57000E-001	1.45057E-003	7	...........	-327.66
	4	0.01	1.47878E-001	-1.42660E-006	0.00000E+000	1.47000E-001	1.47126E-003	7	...........	-327.66
	5	0.012	1.37858E-001	-1.59602E-006	0.00000E+000	1.37000E-001	1.45229E-003	7	...........	-327.66
	6	0.014	1.27880E-001	-1.74930E-006	0.00000E+000	1.27000E-001	1.40919E-003	7	...........	-327.66
	7	0.016	1.17856E-001	-1.89015E-006	0.00000E+000	1.17000E-001	1.42471E-003	7	...........	-327.66
	8	0.018	1.07834E-001	-2.02292E-006	0.00000E+000	1.07000E-001	1.40747E-003	7	...........	-327.66
	9	0.02	9.78419E-002	-2.14609E-006	0.00000E+000	9.70000E-002	1.37643E-003	7	...........	-327.66
	10	0.022	8.78756E-002	-2.26339E-006	0.00000E+000	8.70000E-002	1.37988E-003	7	...........	-327.66
	11	0.024	7.78187E-002	-2.37575E-006	0.00000E+000	7.70000E-002	1.43678E-003	7	...........	-327.66
	12	0.026	6.78351E-002	-2.48205E-006	0.00000E+000	6.70000E-002	1.42298E-003	7	...........	-327.66
	13	0.028	5.78213E-002	-2.58533E-006	0.00000E+000	5.70000E-002	1.47126E-003	7	...........	-327.66
	14	0.03	4.79049E-002	-2.68229E-006	0.00000E+000	4.70000E-002	1.36436E-003	7	...........	-327.66
	15	0.032	3.78471E-002	-2.77720E-006	0.00000E+000	3.70000E-002	1.41953E-003	7	...........	-327.66
	16	0.034	2.78282E-002	-2.86892E-006	0.00000E+000	2.70000E-002	1.41609E-003	7	...........	-327.66
	17	0.036	1.79049E-002	-2.95777E-006	0.00000E+000	1.70000E-002	1.44540E-003	7	...........	-327.66
	18	0.038	7.89713E-003	-3.04280E-006	0.00000E+000	6.99998E-003	1.45057E-003	7	...........	-327.66
	19	0.04	-2.21062E-003	-3.12578E-006	0.00000E+000	-3.00001E-003	1.37988E-003	7	...........	-327.66
	20	0.042	-1.21279E-002	-3.20581E-006	0.00000E+000	-1.30000E-002	1.42298E-003	7	...........	-327.66
	21	0.044	-2.21977E-002	-3.28411E-006	0.00000E+000	-2.30000E-002	1.36436E-003	7	...........	-327.66
	22	0.046	-3.21192E-002	-3.36066E-006	0.00000E+000	-3.30000E-002	1.42298E-003	7	...........	-327.66
	23	0.048	-4.21615E-002	-3.43325E-006	0.00000E+000	-4.30000E-002	1.42298E-003	7	...........	-327.66
	24	0.05	-5.21451E-002	-3.50566E-006	0.00000E+000	-5.30000E-002	1.37815E-003	7	...........	-327.66
	25	0.052	-6.21356E-002	-3.57594E-006	0.00000E+000	-6.30000E-002	1.40402E-003	7	...........	-327.66
	26	0.054	-7.21417E-002	-3.64506E-006	0.00000E+000	-7.30000E-002	1.37643E-003	7	...........	-327.66
	27	0.056	-8.21529E-002	-3.71193E-006	0.00000E+000	-8.30000E-002	1.36609E-003	7	...........	-327.66
	28	0.058	-9.21425E-002	-3.77695E-006	0.00000E+000	-9.30000E-002	1.43160E-003	7	...........	-327.66
	29	0.06	-1.02205E-001	-3.84238E-006	0.00000E+000	-1.03000E-001	1.40229E-003	7	...........	-327.66
	30	0.062	-1.12106E-001	-3.90349E-006	0.00000E+000	-1.13000E-001	1.38678E-003	7	...........	-327.66
	31	0.064	-1.22198E-001	-3.96558E-006	0.00000E+000	-1.23000E-001	1.43333E-003	7	...........	-327.66
	32	0.066	-1.32194E-001	-4.02545E-006	0.00000E+000	-1.33000E-001	1.47126E-003	7	...........	-327.66
	33	0.068	-1.42149E-001	-4.08470E-006	0.00000E+000	-1.43000E-001	1.43678E-003	7	...........	-327.66
	34	0.07	-1.52149E-001	-4.14311E-006	0.00000E+000	-1.53000E-001	1.42298E-003	7	...........	-327.66
	35	0.072	-1.62207E-001	-4.20001E-006	0.00000E+000	-1.63000E-001	1.41436E-003	7	...........	-327.66
	36	0.074	-1.72151E-001	-4.25592E-006	0.00000E+000	-1.73000E-001	1.40402E-003	7	...........	-327.66
	37	0.076	-1.82183E-001	-4.31192E-006	0.00000E+000	-1.83000E-001	1.41436E-003	7	...........	-327.66
	38	0.078	-1.92105E-001	-4.36557E-006	0.00000E+000	-1.93000E-001	1.37643E-003	7	...........	-327.66
	39	0.08	-2.02209E-001	-4.41882E-006	0.00000E+000	-2.03000E-001	1.35057E-003	7	...........	-327.66
	40	0.082	-2.12124E-001	-4.47265E-006	0.00000E+000	-2.13000E-001	1.42126E-003	7	...........	-327.66
	41	0.084	-2.22140E-001	-4.52302E-006	0.00000E+000	-2.23000E-001	1.37298E-003	7	...........	-327.66
	42	0.086	-2.32102E-001	-4.57401E-006	0.00000E+000	-2.33000E-001	1.39884E-003	7	...........	-327.66
	43	0.088	-2.42140E-001	-4.62271E-006	0.00000E+000	-2.43000E-001	1.39195E-003	7	...........	-327.66
	44	0.09	-2.52124E-001	-4.67128E-006	0.00000E+000	-2.53000E-001	1.41436E-003	7	...........	-327.66
	45	0.092	-2.62116E-001	-4.71994E-006	0.00000E+000	-2.63000E-001	1.39884E-003	7	...........	-327.66
	46	0.094	-2.72076E-001	-4.76505E-006	0.00000E+000	-2.73000E-001	1.40747E-003	7	...........	-327.66
	47	0.096	-2.82135E-001	-4.80889E-006	0.00000E+000	-2.83000E-001	1.44367E-003	7	...........	-327.66
	48	0.098	-2.92091E-001	-4.85377E-006	0.00000E+000	-2.93000E-001	1.43505E-003	7	...........	-327.66
	49	0.1	-3.02137E-001	-4.89645E-006	0.00000E+000	-3.03000E-001	1.44195E-003	7	...........	-327.66
	50	0.102	-3.12099E-001	-4.93708E-006	0.00000E+000	-3.13000E-001	1.42298E-003	7	...........	-327.66
	51	0.104	-3.22122E-001	-4.97686E-006	0.00000E+000	-3.23000E-001	1.41781E-003	7	...........	-327.66
	52	0.106	-3.32113E-001	-5.01367E-006	0.00000E+000	-3.33000E-001	1.37298E-003	7	...........	-327.66
	53	0.108	-3.42149E-001	-5.05042E-006	0.00000E+000	-3.43000E-001	1.40747E-003	7	...........	-327.66
	54	0.11	-3.52114E-001	-5.08575E-006	0.00000E+000	-3.53000E-001	1.38850E-003	7	...........	-327.66
	55	0.112	-3.62121E-001	-5.11781E-006	0.00000E+000	-3.63000E-001	1.36264E-003	7	...........	-327.66
	56	0.114	-3.72080E-001	-5.14876E-006	0.00000E+000	-3.73000E-001	1.36264E-003	7	...........	-327.66
	57	0.116	-3.82148E-001	-5.17777E-006	0.00000E+000	-3.83000E-001	1.40747E-003	7	...........	-327.66
	58	0.118	-3.92088E-001	-5.20482E-006	0.00000E+000	-3.93000E-001	1.39540E-003	7	...........	-327.66
	59	0.12	-4.02137E-001	-5.23031E-006	0.00000E+000	-4.03000E-001	1.37815E-003	7	...........	-327.66
	60	0.122	-4.12100E-001	-5.25212E-006	0.00000E+000	-4.13000E-001	1.37471E-003	7	...........	-327.66
	61	0.124	-4.22081E-001	-5.27445E-006	0.00000E+000	-4.23000E-001	1.44540E-003	7	...........	-327.66
	62	0.126	-4.32064E-001	-5.29297E-006	0.00000E+000	-4.33000E-001	1.44884E-003	7	...........	-327.66
	63	0.128	-4.42135E-001	-5.30971E-006	0.00000E+000	-4.43000E-001	1.36609E-003	7	...........	-327.66
	64	0.13	-4.52101E-001	-5.32406E-006	0.00000E+000	-4.53000E-001	1.42126E-003	7	...........	-327.66
	65	0.132	-4.62102E-001	-5.33775E-006	0.00000E+000	-4.63000E-001	1.40229E-003	7	...........	-327.66
	66	0.134	-4.72049E-001	-5.34912E-006	0.00000E+000	-4.73000E-001	1.39367E-003	7	...........	-327.66
	67	0.136	-4.82115E-001	-5.35907E-006	0.00000E+000	-4.83000E-001	1.42643E-003	7	...........	-327.66
	68	0.138	-4.92105E-001	-5.36795E-006	0.00000E+000	-4.93000E-001	1.36264E-003	7	...........	-327.66
	69	0.14	-5.02098E-001	-5.37471E-006	0.00000E+000	-5.03000E-001	1.38333E-003	7	...........	-327.66
	70	0.142	-5.12079E-001	-5.37914E-006	0.00000E+000	-5.13000E-001	1.41781E-003	7	...........	-327.66
	71	0.144	-5.22116E-001	-5.38405E-006	0.00000E+000	-5.23000E-001	1.37126E-003	7	...........	-327.66
	72	0.146	-5.32107E-001	-5.38650E-006	0.00000E+000	-5.33000E-001	1.42815E-003	7	...........	-327.66
	73	0.148	-5.42117E-001	-5.38638E-006	0.00000E+000	-5.43000E-001	1.39540E-003	7	...........	-327.66
	74	0.15	-5.52081E-001	-5.38517E-006	0.00000E+000	-5.53000E-001	1.35057E-003	7	...........	-327.66
	75	0.152	-5.62148E-001	-5.38121E-006	0.00000E+000	-5.63000E-001	1.40919E-003	7	...........	-327.66
	76	0.154	-5.72078E-001	-5.37614E-006	0.00000E+000	-5.73000E-001	1.44195E-003	7	...........	-327.66
	77	0.156	-5.82108E-001	-5.36764E-006	0.00000E+000	-5.83000E-001	1.39540E-003	7	...........	-327.66
	78	0.158	-5.92058E-001	-5.35298E-006	0.00000E+000	-5.93000E-001	1.40574E-003	7	...........	-327.66
	79	0.16	-6.02085E-001	-5.33527E-006	0.00000E+000	-6.03000E-001	1.40574E-003	7	...........	-327.66
	80	0.162	-6.12098E-001	-5.31044E-006	0.00000E+000	-6.13000E-001	1.40057E-003	7	...........	-327.66
	81	0.164	-6.22061E-001	-5.27857E-006	0.00000E+000	-6.23000E-001	1.40057E-003	7	...........	-327.66
	82	0.166	-6.32030E-001	-5.23651E-006	0.00000E+000	-6.33000E-001	1.41264E-003	7	...........	-327.66
	83	0.168	-6.42074E-001	-5.18401E-006	0.00000E+000	-6.43000E-001	1.40574E-003	7	...........	-327.66
	84	0.17	-6.52047E-001	-5.12057E-006	0.00000E+000	-6.53000E-001	1.41436E-003	7	...........	-327.66
	85	0.172	-6.62074E-001	-5.04189E-006	0.00000E+000	-6.63000E-001	1.44195E-003	7	...........	-327.66
	86	0.174	-6.72033E-001	-4.94667E-006	0.00000E+000	-6.73000E-001	1.41781E-003	7	...........	-327.66
	87	0.176	-6.82033E-001	-4.83384E-006	0.00000E+000	-6.83000E-001	1.38678E-003	7	...........	-327.66
	88	0.178	-6.92072E-001	-4.70143E-006	0.00000E+000	-6.93000E-001	1.45747E-003	7	...........	-327.66
	89	0.18	-7.02093E-001	-4.55040E-006	0.00000E+000	-7.03000E-001	1.39195E-003	7	...........	-327.66
	90	0.182	-7.12043E-001	-4.38083E-006	0.00000E+000	-7.13000E-001	1.40229E-003	7	...........	-327.66
	91	0.184	-7.22081E-001	-4.19034E-006	0.00000E+000	-7.23000E-001	1.41781E-003	7	...........	-327.66
	92	0.186	-7.32088E-001	-3.98250E-006	0.00000E+000	-7.33000E-001	1.42815E-003	7	...........	-327.66
	93	0.188	-7.42078E-001	-3.76307E-006	0.00000E+000	-7.43000E-001	1.46264E-003	7	...........	-327.66
	94	0.19	-7.52042E-001	-3.53101E-006	0.00000E+000	-7.53000E-001	1.38333E-003	7	...........	-327.66
	95	0.192	-7.62111E-001	-3.29192E-006	0.00000E+000	-7.63000E-001	1.39540E-003	7	...........	-327.66
	96	0.194	-7.72092E-001	-3.05091E-006	0.00000E+000	-7.73000E-001	1.41781E-003	7	...........	-327.66
	97	0.196	-7.82040E-001	-2.81225E-006	0.00000E+000	-7.83000E-001	1.41091E-003	7	...........	-327.66
	98	0.198	-7.92077E-001	-2.58039E-006	0.00000E+000	-7.93000E-001	1.40057E-003	7	...........	-327.66
	99	0.2	-8.02077E-001	-2.36114E-006	0.00000E+000	-8.03000E-001	1.43505E-003	7	...........	-327.66
	100	0.202	-8.12068E-001	-2.15910E-006	0.00000E+000	-8.13000E-001	1.42298E-003	7	...........	-327.66
	101	0.204	-8.22125E-001	-1.97342E-006	0.00000E+000	-8.23000E-001	1.44540E-003	7	...........	-327.66
	102	0.206	-8.32054E-001	-1.80765E-006	0.00000E+000	-8.33000E-001	1.44540E-003	7	...........	-327.66
	103	0.208	-8.42127E-001	-1.66218E-006	0.00000E+000	-8.43000E-001	1.41953E-003	7	...........	-327.66
	104	0.21	-8.52093E-001	-1.53539E-006	0.00000E+000	-8.53000E-001	1.37815E-003	7	...........	-327.66
	105	0.212	-8.62107E-001	-1.42329E-006	0.00000E+000	-8.63000E-001	1.41953E-003	7	...........	-327.66
	106	0.214	-8.72059E-001	-1.32848E-006	0.00000E+000	-8.73000E-001	1.42988E-003	7	...........	-327.66
	107	0.216	-8.82107E-001	-1.24675E-006	0.00000E+000	-8.83000E-001	1.35574E-003	7	...........	-327.66
	108	0.218	-8.92111E-001	-1.17477E-006	0.00000E+000	-8.93000E-001	1.39022E-003	7	...........	-327.66
	109	0.22	-9.02123E-001	-1.11369E-006	0.00000E+000	-9.03000E-001	1.42298E-003	7	...........	-327.66
	110	0.222	-8.93645E-001	-9.86712E-007	0.00000E+000	-8.93000E-001	1.46264E-003	7	...........	-327.66
	111	0.224	-8.83652E-001	-8.96665E-007	0.00000E+000	-8.83000E-001	1.42988E-003	7	...........	-327.66
	112	0.226	-8.73620E-001	-8.26052E-007	0.00000E+000	-8.73000E-001	1.45919E-003	7	...........	-327.66
	113	0.228	-8.63728E-001	-7.67561E-007	0.00000E+000	-8.63000E-001	1.44195E-003	7	...........	-327.66
	114	0.23	-8.53671E-001	-7.15330E-007	0.00000E+000	-8.53000E-001	1.46436E-003	7	...........	-327.66
	115	0.232	-8.43672E-001	-6.68737E-007	0.00000E+000	-8.43000E-001	1.44540E-003	7	...........	-327.66
	116	0.234	-8.33619E-001	-6.24611E-007	0.00000E+000	-8.33000E-001	1.39367E-003	7	...........	-327.66
	117	0.236	-8.23656E-001	-5.82708E-007	0.00000E+000	-8.23000E-001	1.40747E-003	7	...........	-327.66
	118	0.238	-8.13610E-001	-5.42341E-007	0.00000E+000	-8.13000E-001	1.42298E-003	7	...........	-327.66
	119	0.24	-8.03654E-001	-4.99766E-007	0.00000E+000	-8.03000E-001	1.40402E-003	7	...........	-327.66
	120	0.242	-7.93642E-001	-4.58519E-007	0.00000E+000	-7.93000E-001	1.45574E-003	7	...........	-327.66
	121	0.244	-7.83618E-001	-4.15858E-007	0.00000E+000	-7.83000E-001	1.40057E-003	7	...........	-327.66
	122	0.246	-7.73620E-001	-3.67938E-007	0.00000E+000	-7.73000E-001	1.44540E-003	7	...........	-327.66
	123	0.248	-7.63645E-001	-3.22173E-007	0.00000E+000	-7.63000E-001	1.44884E-003	7	...........	-327.66
	124	0.25	-7.53636E-001	-2.68890E-007	0.00000E+000	-7.53000E-001	1.42988E-003	7	...........	-327.66
	125	0.252	-7.43676E-001	-2.11278E-007	0.00000E+000	-7.43000E-001	1.44884E-003	7	...........	-327.66
	126	0.254	-7.33695E-001	-1.48046E-007	0.00000E+000	-7.33000E-001	1.41436E-003	7	...........	-327.66
	127	0.256	-7.23671E-001	-7.81223E-008	0.00000E+000	-7.23000E-001	1.41091E-003	7	...........	-327.66
	128	0.258	-7.13648E-001	-1.11182E-009	0.00000E+000	-7.13000E-001	1.42471E-003	7	...........	-327.66
	129	0.26	-7.03690E-001	8.48999E-008	0.00000E+000	-7.03000E-001	1.42298E-003	7	...........	-327.66
	130	0.262	-6.93669E-001	1.80620E-007	0.00000E+000	-6.93000E-001	1.39712E-003	7	...........	-327.66
	131	0.264	-6.83680E-001	2.87979E-007	0.00000E+000	-6.83000E-001	1.41091E-003	7	...........	-327.66
	132	0.266	-6.73651E-001	4.07927E-007	0.00000E+000	-6.73000E-001	1.43678E-003	7	...........	-327.66
	133	0.268	-6.63694E-001	5.40755E-007	0.00000E+000	-6.63000E-001	1.41091E-003	7	...........	-327.66
	134	0.27	-6.53655E-001	6.88827E-007	0.00000E+000	-6.53000E-001	1.37471E-003	7	...........	-327.66
	135	0.272	-6.43693E-001	8.54108E-007	0.00000E+000	-6.43000E-001	1.40747E-003	7	...........	-327.66
	136	0.274	-6.33643E-001	1.03660E-006	0.00000E+000	-6.33000E-001	1.40402E-003	7	...........	-327.66
	137	0.276	-6.23669E-001	1.23728E-006	0.00000E+000	-6.23000E-001	1.46264E-003	7	...........	-327.66
	138	0.278	-6.13726E-001	1.45869E-006	0.00000E+000	-6.13000E-001	1.42988E-003	7	...........	-327.66
	139	0.28	-6.03687E-001	1.69902E-006	0.00000E+000	-6.03000E-001	1.45057E-003	7	...........	-327.66
	140	0.282	-5.93686E-001	1.95876E-006	0.00000E+000	-5.93000E-001	1.40574E-003	7	...........	-327.66
	141	0.284	-5.83756E-001	2.23659E-006	0.00000E+000	-5.83000E-001	1.43850E-003	7	...........	-327.66
	142	0.286	-5.73760E-001	2.53268E-006	0.00000E+000	-5.73000E-001	1.41609E-003	7	...........	-327.66
	143	0.288	-5.63740E-001	2.84679E-006	0.00000E+000	-5.63000E-001	1.41609E-003	7	...........	-327.66
	144	0.29	-5.53711E-001	3.17115E-006	0.00000E+000	-5.53000E-001	1.40919E-003	7	...........	-327.66
	145	0.292	-5.43751E-001	3.50395E-006	0.00000E+000	-5.43000E-001	1.42298E-003	7	...........	-327.66
	146	0.294	-5.33782E-001	3.83331E-006	0.00000E+000	-5.33000E-001	1.38333E-003	7	...........	-327.66
	147	0.296	-5.23750E-001	4.15745E-006	0.00000E+000	-5.23000E-001	1.37126E-003	7	...........	-327.66
	148	0.298	-5.13715E-001	4.45867E-006	0.00000E+000	-5.13000E-001	1.40574E-003	7	...........	-327.66
	149	0.3	-5.03718E-001	4.72695E-006	0.00000E+000	-5.03000E-001	1.45747E-003	7	...........	-327.66
	150	0.302	-4.93737E-001	4.95146E-006	0.00000E+000	-4.93000E-001	1.42471E-003	7	...........	-327.66
	151	0.304	-4.83761E-001	5.12724E-006	0.00000E+000	-4.83000E-001	1.39540E-003	7	...........	-327.66
	152	0.306	-4.73679E-001	5.24665E-006	0.00000E+000	-4.73000E-001	1.33850E-003	7	...........	-327.66
	153	0.308	-4.63753E-001	5.31418E-006	0.00000E+000	-4.63000E-001	1.36781E-003	7	...........	-327.66
	154	0.31	-4.53749E-001	5.33555E-006	0.00000E+000	-4.53000E-001	1.35574E-003	7	...........	-327.66
	155	0.312	-4.43732E-001	5.31777E-006	0.00000E+000	-4.43000E-001	1.44022E-003	7	...........	-327.66
	156	0.314	-4.33709E-001	5.27457E-006	0.00000E+000	-4.33000E-001	1.44884E-003	7	...........	-327.66
	157	0.316	-4.23724E-001	5.21179E-006	0.00000E+000	-4.23000E-001	1.43505E-003	7	...........	-327.66
	158	0.318	-4.13725E-001	5.14186E-006	0.00000E+000	-4.13000E-001	1.45402E-003	7	...........	-327.66
	159	0.32	-4.03766E-001	5.06737E-006	0.00000E+000	-4.03000E-001	1.40747E-003	7	...........	-327.66
	160	0.322	-3.93711E-001	4.99472E-006	0.00000E+000	-3.93000E-001	1.42815E-003	7	...........	-327.66
	161	0.324	-3.83798E-001	4.92678E-006	0.00000E+000	-3.83000E-001	1.43678E-003	7	...........	-327.66
	162	0.326	-3.73754E-001	4.86440E-006	0.00000E+000	-3.73000E-001	1.35402E-003	7	...........	-327.66
	163	0.328	-3.63752E-001	4.80911E-006	0.00000E+000	-3.63000E-001	1.39712E-003	7	...........	-327.66
	164	0.33	-3.53771E-001	4.76047E-006	0.00000E+000	-3.53000E-001	1.43505E-003	7	...........	-327.66
	165	0.332	-3.43794E-001	4.71936E-006	0.00000E+000	-3.43000E-001	1.40574E-003	7	...........	-327.66
	166	0.334	-3.33773E-001	4.68410E-006	0.00000E+000	-3.33000E-001	1.40919E-003	7	...........	-327.66
	167	0.336	-3.23774E-001	4.65321E-006	0.00000E+000	-3.23000E-001	1.44884E-003	7	...........	-327.66
	168	0.338	-3.13715E-001	4.62676E-006	0.00000E+000	-3.13000E-001	1.45402E-003	7	...........	-327.66
	169	0.34	-3.03772E-001	4.60538E-006	0.00000E+000	-3.03000E-001	1.43850E-003	7	...........	-327.66
	170	0.342	-2.93788E-001	4.58851E-006	0.00000E+000	-2.93000E-001	1.39195E-003	7	...........	-327.66
	171	0.344	-2.83767E-001	4.57332E-006	0.00000E+000	-2.83000E-001	1.42471E-003	7	...........	-327.66
	172	0.346	-2.73717E-001	4.56142E-006	0.00000E+000	-2.73000E-001	1.36781E-003	7	...........	-327.66
	173	0.348	-2.63773E-001	4.55023E-006	0.00000E+000	-2.63000E-001	1.37126E-003	7	...........	-327.66
	174	0.35	-2.53781E-001	4.54280E-006	0.00000E+000	-2.53000E-001	1.47126E-003	7	...........	-327.66
	175	0.352	-2.43742E-001	4.53430E-006	0.00000E+000	-2.43000E-001	1.39884E-003	7	...........	-327.66
	176	0.354	-2.33724E-001	4.52564E-006	0.00000E+000	-2.33000E-001	1.46091E-003	7	...........	-327.66
	177	0.356	-2.23774E-001	4.51680E-006	0.00000E+000	-2.23000E-001	1.41953E-003	7	...........	-327.66
	178	0.358	-2.13736E-001	4.50792E-006	0.00000E+000	-2.13000E-001	1.41091E-003	7	...........	-327.66
	179	0.36	-2.03824E-001	4.49938E-006	0.00000E+000	-2.03000E-001	1.45747E-003	7	...........	-327.66
	180	0.362	-1.93754E-001	4.49167E-006	0.00000E+000	-1.93000E-001	1.44540E-003	7	...........	-327.66
	181	0.364	-1.83806E-001	4.48341E-006	0.00000E+000	-1.83000E-001	1.40747E-003	7	...........	-327.66
	182	0.366	-1.73825E-001	4.47583E-006	0.00000E+000	-1.73000E-001	1.43850E-003	7	...........	-327.66
	183	0.368	-1.63780E-001	4.47107E-006	0.00000E+000	-1.63000E-001	1.35919E-003	7	...........	-327.66
	184	0.37	-1.53778E-001	4.46363E-006	0.00000E+000	-1.53000E-001	1.40057E-003	7	...........	-327.66
	185	0.372	-1.43786E-001	4.45756E-006	0.00000E+000	-1.43000E-001	1.43160E-003	7	...........	-327.66
	186	0.374	-1.33802E-001	4.45239E-006	0.00000E+000	-1.33000E-001	1.44540E-003	7	...........	-327.66
	187	0.376	-1.23858E-001	4.44606E-006	0.00000E+000	-1.23000E-001	1.41609E-003	7	...........	-327.66
	188	0.378	-1.13727E-001	4.44223E-006	0.00000E+000	-1.13000E-001	1.41436E-003	7	...........	-327.66
	189	0.38	-1.03818E-001	4.43729E-006	0.00000E+000	-1.03000E-001	1.42471E-003	7	...........	-327.66
	190	0.382	-9.37882E-002	4.43268E-006	0.00000E+000	-9.30000E-002	1.37988E-003	7	...........	-327.66
	191	0.384	-8.37839E-002	4.42901E-006	0.00000E+000	-8.30000E-002	1.40229E-003	7	...........	-327.66
	192	0.386	-7.37486E-002	4.42320E-006	0.00000E+000	-7.30000E-002	1.39540E-003	7	...........	-327.66
	193	0.388	-6.37486E-002	4.41911E-006	0.00000E+000	-6.30000E-002	1.45057E-003	7	...........	-327.66
	194	0.39	-5.37425E-002	4.41432E-006	0.00000E+000	-5.30000E-002	1.40402E-003	7	...........	-327.66
	195	0.392	-4.38123E-002	4.40823E-006	0.00000E+000	-4.30000E-002	1.43333E-003	7	...........	-327.66
	196	0.394	-3.37218E-002	4.40228E-006	0.00000E+000	-3.30000E-002	1.42815E-003	7	...........	-327.66
	197	0.396	-2.38373E-002	4.39738E-006	0.00000E+000	-2.30000E-002	1.43850E-003	7	...........	-327.66
	198	0.398	-1.37667E-002	4.39066E-006	0.00000E+000	-1.30000E-002	1.45402E-003	7	...........	-327.66
	199	0.4	-3.81752E-003	4.38449E-006	0.00000E+000	-3.00001E-003	1.44022E-003	7	...........	-327.66
	200	0.402	6.26007E-003	4.37695E-006	0.00000E+000	6.99998E-003	1.37126E-003	7	...........	-327.66
	201	0.404	1.62420E-002	4.36931E-006	0.00000E+000	1.70000E-002	1.36781E-003	7	...........	-327.66
	202	0.406	2.62420E-002	4.36026E-006	0.00000E+000	2.70000E-002	1.42298E-003	7	...........	-327.66
	203	0.408	3.62178E-002	4.35193E-006	0.00000E+000	3.70000E-002	1.37126E-003	7	...........	-327.66
	204	0.41	4.62859E-002	4.34320E-006	0.00000E+000	4.70000E-002	1.39540E-003	7	...........	-327.66
	205	0.412	5.61885E-002	4.33286E-006	0.00000E+000	5.70000E-002	1.42988E-003	7	...........	-327.66
	206	0.414	6.62368E-002	4.32280E-006	0.00000E+000	6.70000E-002	1.44712E-003	7	...........	-327.66
	207	0.416	7.62282E-002	4.31239E-006	0.00000E+000	7.70000E-002	1.41091E-003	7	...........	-327.66
	208	0.418	8.62480E-002	4.30077E-006	0.00000E+000	8.70000E-002	1.39712E-003	7	...........	-327.66
	209	0.42	9.62092E-002	4.28913E-006	0.00000E+000	9.70000E-002	1.38850E-003	7	...........	-327.66
	210	0.422	1.06202E-001	4.27726E-006	0.00000E+000	1.07000E-001	1.39884E-003	7	...........	-327.66
	211	0.424	1.16269E-001	4.26507E-006	0.00000E+000	1.17000E-001	1.42643E-003	7	...........	-327.66
	212	0.426	1.26277E-001	4.25214E-006	0.00000E+000	1.27000E-001	1.45919E-003	7	...........	-327.66
	213	0.428	1.36201E-001	4.23969E-006	0.00000E+000	1.37000E-001	1.40574E-003	7	...........	-327.66
	214	0.43	1.46265E-001	4.22665E-006	0.00000E+000	1.47000E-001	1.45402E-003	7	...........	-327.66
	215	0.432	1.56218E-001	4.21465E-006	0.00000E+000	1.57000E-001	1.41436E-003	7	...........	-327.66
	216	0.434	1.66295E-001	4.20144E-006	0.00000E+000	1.67000E-001	1.39712E-003	7	...........	-327.66
	217	0.436	1.76214E-001	4.18770E-006	0.00000E+000	1.77000E-001	1.36091E-003	7	...........	-327.66
	218	0.438	1.86205E-001	4.17460E-006	0.00000E+000	1.87000E-001	1.44022E-003	7	...........	-327.66
	219	0.44	1.96242E-001	4.15994E-006	0.00000E+000	1.97000E-001	1.42988E-003	7	...........	-327.66
	220	0.442	2.06228E-001	4.14682E-006	0.00000E+000	2.07000E-001	1.39712E-003	7	...........	-327.66
	221	0.444	2.16193E-001	4.13250E-006	0.00000E+000	2.17000E-001	1.43678E-003	7	...........	-327.66
	222	0.446	2.26194E-001	4.11986E-006	0.00000E+000	2.27000E-001	1.38160E-003	7	...........	-327.66
	223	0.448	2.36185E-001	4.10622E-006	0.00000E+000	2.37000E-001	1.37815E-003	7	...........	-327.66
	224	0.45	2.46273E-001	4.09329E-006	0.00000E+000	2.47000E-001	1.41264E-003	7	...........	-327.66
	225	0.452	2.56151E-001	4.08041E-006	0.00000E+000	2.57000E-001	1.42126E-003	7	...........	-327.66
	226	0.454	2.66201E-001	4.06746E-006	0.00000E+000	2.67000E-001	1.36609E-003	7	...........	-327.66
	227	0.456	2.76171E-001	4.05522E-006	0.00000E+000	2.77000E-001	1.35574E-003	7	...........	-327.66
	228	0.458	2.86194E-001	4.04330E-006	0.00000E+000	2.87000E-001	1.44195E-003	7	...........	-327.66
	229	0.46	2.96170E-001	4.03201E-006	0.00000E+000	2.97000E-001	1.42471E-003	7	...........	-327.66
	230	0.462	3.06179E-001	4.02087E-006	0.00000E+000	3.07000E-001	1.42643E-003	7	...........	-327.66
	231	0.464	3.16171E-001	4.01226E-006	0.00000E+000	3.17000E-001	1.42815E-003	7	...........	-327.66
	232	0.466	3.26249E-001	4.00262E-006	0.00000E+000	3.27000E-001	1.38850E-003	7	...........	-327.66
	233	0.468	3.36181E-001	3.99300E-006	0.00000E+000	3.37000E-001	1.39884E-003	7	...........	-327.66
	234	0.47	3.46268E-001	3.98540E-006	0.00000E+000	3.47000E-001	1.37471E-003	7	...........	-327.66
	235	0.472	3.56200E-001	3.97798E-006	0.00000E+000	3.57000E-001	1.43850E-003	7	...........	-327.66
	236	0.474	3.66213E-001	3.97214E-006	0.00000E+000	3.67000E-001	1.42126E-003	7	...........	-327.66
	237	0.476	3.76167E-001	3.96598E-006	0.00000E+000	3.77000E-001	1.46264E-003	7	...........	-327.66
	238	0.478	3.86163E-001	3.96200E-006	0.00000E+000	3.87000E-001	1.36609E-003	7	...........	-327.66
	239	0.48	3.96173E-001	3.95848E-006	0.00000E+000	3.97000E-001	1.36609E-003	7	...........	-327.66
	240	0.482	4.06264E-001	3.95636E-006	0.00000E+000	4.07000E-001	1.44540E-003	7	...........	-327.66
	241	0.484	4.16133E-001	3.95565E-006	0.00000E+000	4.17000E-001	1.37815E-003	7	...........	-327.66
	242	0.486	4.26154E-001	3.95450E-006	0.00000E+000	4.27000E-001	1.41264E-003	7	...........	-327.66
	243	0.488	4.36140E-001	3.95519E-006	0.00000E+000	4.37000E-001	1.40747E-003	7	...........	-327.66
	244	0.49	4.46180E-001	3.95824E-006	0.00000E+000	4.47000E-001	1.41091E-003	7	...........	-327.66
	245	0.492	4.56136E-001	3.96029E-006	0.00000E+000	4.57000E-001	1.46264E-003	7	...........	-327.66
	246	0.494	4.66115E-001	3.96448E-006	0.00000E+000	4.67000E-001	1.40574E-003	7	...........	-327.66
	247	0.496	4.76122E-001	3.97112E-006	0.00000E+000	4.77000E-001	1.40402E-003	7	...........	-327.66
	248	0.498	4.86183E-001	3.97783E-006	0.00000E+000	4.87000E-001	1.39884E-003	7	...........	-327.66
	249	0.5	4.96166E-001	3.98543E-006	0.00000E+000	4.97000E-001	1.38505E-003	7	...........	-327.66
	250	0.502	5.06151E-001	3.99448E-006	0.00000E+000	5.07000E-001	1.42988E-003	7	...........	-327.66
	251	0.504	5.16129E-001	4.00292E-006	0.00000E+000	5.17000E-001	1.39540E-003	7	...........	-327.66
	252	0.506	5.26245E-001	4.01442E-006	0.00000E+000	5.27000E-001	1.35574E-003	7	...........	-327.66
	253	0.508	5.36150E-001	4.02623E-006	0.00000E+000	5.37000E-001	1.38678E-003	7	...........	-327.66
	254	0.51	5.46152E-001	4.03815E-006	0.00000E+000	5.47000E-001	1.43505E-003	7	...........	-327.66
	255	0.512	5.56182E-001	4.05323E-006	0.00000E+000	5.57000E-001	1.41953E-003	7	...........	-327.66
	256	0.514	5.66176E-001	4.06912E-006	0.00000E+000	5.67000E-001	1.43505E-003	7	...........	-327.66
	257	0.516	5.76182E-001	4.08715E-006	0.00000E+000	5.77000E-001	1.44367E-003	7	...........	-327.66
	258	0.518	5.86177E-001	4.10615E-006	0.00000E+000	5.87000E-001	1.39884E-003	7	...........	-327.66
	259	0.52	5.96144E-001	4.12645E-006	0.00000E+000	5.97000E-001	1.44367E-003	7	...........	-327.66
CURVE2	TABLE
	Pt	T	Vf	Im	Vu	Sig	Ach	IERange	Over	Temp
	#	s	V vs. Ref.	A	V	V	V	#	bits	deg C
	260	0.522	5.90497E-001	3.00230E-006	0.00000E+000	5.90000E-001	1.44540E-003	7	...........	-327.66
	261	0.524	5.80770E-001	2.21445E-006	0.00000E+000	5.80000E-001	1.42126E-003	7	...........	-327.66
	262	0.526	5.70728E-001	1.68327E-006	0.00000E+000	5.70000E-001	1.38678E-003	7	...........	-327.66
	263	0.528	5.60746E-001	1.26156E-006	0.00000E+000	5.60000E-001	1.43678E-003	7	...........	-327.66
	264	0.53	5.50765E-001	9.03494E-007	0.00000E+000	5.50000E-001	1.42815E-003	7	...........	-327.66
	265	0.532	5.40775E-001	5.92055E-007	0.00000E+000	5.40000E-001	1.38850E-003	7	...........	-327.66
	266	0.534	5.30788E-001	3.13276E-007	0.00000E+000	5.30000E-001	1.37126E-003	7	...........	-327.66
	267	0.536	5.20757E-001	6.05518E-008	0.00000E+000	5.20000E-001	1.44195E-003	7	...........	-327.66
	268	0.538	5.10767E-001	-1.68531E-007	0.00000E+000	5.10000E-001	1.38160E-003	7	...........	-327.66
	269	0.54	5.00810E-001	-3.80508E-007	0.00000E+000	5.00000E-001	1.36091E-003	7	...........	-327.66
	270	0.542	4.90757E-001	-5.75932E-007	0.00000E+000	4.90000E-001	1.43160E-003	7	...........	-327.66
	271	0.544	4.80765E-001	-7.56560E-007	0.00000E+000	4.80000E-001	1.37815E-003	7	...........	-327.66
	272	0.546	4.70781E-001	-9.25462E-007	0.00000E+000	4.70000E-001	1.44022E-003	7	...........	-327.66
	273	0.548	4.60779E-001	-1.08383E-006	0.00000E+000	4.60000E-001	1.42643E-003	7	...........	-327.66
	274	0.55	4.50819E-001	-1.23056E-006	0.00000E+000	4.50000E-001	1.38333E-003	7	...........	-327.66
	275	0.552	4.40757E-001	-1.37185E-006	0.00000E+000	4.40000E-001	1.43333E-003	7	...........	-327.66
	276	0.554	4.30761E-001	-1.50204E-006	0.00000E+000	4.30000E-001	1.36609E-003	7	...........	-327.66
	277	0.556	4.20836E-001	-1.62635E-006	0.00000E+000	4.20000E-001	1.39367E-003	7	...........	-327.66
	278	0.558	4.10764E-001	-1.74585E-006	0.00000E+000	4.10000E-001	1.43160E-003	7	...........	-327.66
	279	0.56	4.00816E-001	-1.85761E-006	0.00000E+000	4.00000E-001	1.47471E-003	7	...........	-327.66
	280	0.562	3.90774E-001	-1.96553E-006	0.00000E+000	3.90000E-001	1.39884E-003	7	...........	-327.66
	281	0.564	3.80793E-001	-2.06662E-006	0.00000E+000	3.80000E-001	1.41609E-003	7	...........	-327.66
	282	0.566	3.70819E-001	-2.16282E-006	0.00000E+000	3.70000E-001	1.46781E-003	7	...........	-327.66
	283	0.568	3.60768E-001	-2.25761E-006	0.00000E+000	3.60000E-001	1.41781E-003	7	...........	-327.66
	284	0.57	3.50806E-001	-2.34631E-006	0.00000E+000	3.50000E-001	1.43160E-003	7	...........	-327.66
	285	0.572	3.40815E-001	-2.43281E-006	0.00000E+000	3.40000E-001	1.42126E-003	7	...........	-327.66
	286	0.574	3.30831E-001	-2.51463E-006	0.00000E+000	3.30000E-001	1.46264E-003	7	...........	-327.66
	287	0.576	3.20797E-001	-2.59497E-006	0.00000E+000	3.20000E-001	1.41953E-003	7	...........	-327.66
	288	0.578	3.10803E-001	-2.67163E-006	0.00000E+000	3.10000E-001	1.43160E-003	7	...........	-327.66
	289	0.58	3.00815E-001	-2.74654E-006	0.00000E+000	3.00000E-001	1.42126E-003	7	...........	-327.66
	290	0.582	2.90805E-001	-2.81600E-006	0.00000E+000	2.90000E-001	1.37471E-003	7	...........	-327.66
	291	0.584	2.80793E-001	-2.88676E-006	0.00000E+000	2.80000E-001	1.41436E-003	7	...........	-327.66
	292	0.586	2.70873E-001	-2.95403E-006	0.00000E+000	2.70000E-001	1.49367E-003	7	...........	-327.66
	293	0.588	2.60800E-001	-3.01995E-006	0.00000E+000	2.60000E-001	1.47988E-003	7	...........	-327.66
	294	0.59	2.50845E-001	-3.08267E-006	0.00000E+000	2.50000E-001	1.41781E-003	7	...........	-327.66
	295	0.592	2.40814E-001	-3.14407E-006	0.00000E+000	2.40000E-001	1.40747E-003	7	...........	-327.66
	296	0.594	2.30801E-001	-3.20536E-006	0.00000E+000	2.30000E-001	1.43850E-003	7	...........	-327.66
	297	0.596	2.20829E-001	-3.26407E-006	0.00000E+000	2.20000E-001	1.34884E-003	7	...........	-327.66
	298	0.598	2.10807E-001	-3.32120E-006	0.00000E+000	2.10000E-001	1.43333E-003	7	...........	-327.66
	299	0.6	2.00829E-001	-3.37688E-006	0.00000E+000	2.00000E-001	1.42471E-003	7	...........	-327.66
	300	0.602	1.90853E-001	-3.43154E-006	0.00000E+000	1.90000E-001	1.38333E-003	7	...........	-327.66
	301	0.604	1.80821E-001	-3.48547E-006	0.00000E+000	1.80000E-001	1.41609E-003	7	...........	-327.66
	302	0.606	1.70900E-001	-3.53677E-006	0.00000E+000	1.70000E-001	1.44022E-003	7	...........	-327.66
	303	0.608	1.60837E-001	-3.58898E-006	0.00000E+000	1.60000E-001	1.44367E-003	7	...........	-327.66
	304	0.61	1.50821E-001	-3.63885E-006	0.00000E+000	1.50000E-001	1.34367E-003	7	...........	-327.66
	305	0.612	1.40899E-001	-3.68673E-006	0.00000E+000	1.40000E-001	1.38505E-003	7	...........	-327.66
	306	0.614	1.30851E-001	-3.73440E-006	0.00000E+000	1.30000E-001	1.43850E-003	7	...........	-327.66
	307	0.616	1.20831E-001	-3.78240E-006	0.00000E+000	1.20000E-001	1.40057E-003	7	...........	-327.66
	308	0.618	1.10834E-001	-3.82765E-006	0.00000E+000	1.10000E-001	1.42815E-003	7	...........	-327.66
	309	0.62	1.00820E-001	-3.87288E-006	0.00000E+000	1.00000E-001	1.38505E-003	7	...........	-327.66
	310	0.622	9.09083E-002	-3.91615E-006	0.00000E+000	9.00000E-002	1.39195E-003	7	...........	-327.66
	311	0.624	8.07954E-002	-3.95903E-006	0.00000E+000	8.00000E-002	1.40402E-003	7	...........	-327.66
	312	0.626	7.08411E-002	-4.00155E-006	0.00000E+000	7.00000E-002	1.44367E-003	7	...........	-327.66
	313	0.628	6.08428E-002	-4.04120E-006	0.00000E+000	6.00000E-002	1.43850E-003	7	...........	-327.66
	314	0.63	5.08532E-002	-4.08101E-006	0.00000E+000	5.00000E-002	1.40057E-003	7	...........	-327.66
	315	0.632	4.08058E-002	-4.12002E-006	0.00000E+000	4.00000E-002	1.39712E-003	7	...........	-327.66
	316	0.634	3.08187E-002	-4.15852E-006	0.00000E+000	3.00000E-002	1.41436E-003	7	...........	-327.66
	317	0.636	2.08221E-002	-4.19479E-006	0.00000E+000	2.00000E-002	1.48505E-003	7	...........	-327.66
	318	0.638	1.08894E-002	-4.23100E-006	0.00000E+000	9.99999E-003	1.41609E-003	7	...........	-327.66
	319	0.64	8.05755E-004	-4.26680E-006	0.00000E+000	-1.49012E-008	1.43160E-003	7	...........	-327.66
	320	0.642	-9.14683E-003	-4.30084E-006	0.00000E+000	-1.00000E-002	1.37815E-003	7	...........	-327.66
	321	0.644	-1.91537E-002	-4.33541E-006	0.00000E+000	-2.00000E-002	1.44540E-003	7	...........	-327.66
	322	0.646	-2.91917E-002	-4.36628E-006	0.00000E+000	-3.00000E-002	1.41436E-003	7	...........	-327.66
	323	0.648	-3.91391E-002	-4.39807E-006	0.00000E+000	-4.00000E-002	1.45574E-003	7	...........	-327.66
	324	0.65	-4.91727E-002	-4.42872E-006	0.00000E+000	-5.00000E-002	1.44367E-003	7	...........	-327.66
	325	0.652	-5.91330E-002	-4.45922E-006	0.00000E+000	-6.00000E-002	1.47815E-003	7	...........	-327.66
	326	0.654	-6.91356E-002	-4.48860E-006	0.00000E+000	-7.00000E-002	1.39022E-003	7	...........	-327.66
	327	0.656	-7.91865E-002	-4.51616E-006	0.00000E+000	-8.00000E-002	1.39540E-003	7	...........	-327.66
	328	0.658	-8.91322E-002	-4.54459E-006	0.00000E+000	-9.00000E-002	1.40747E-003	7	...........	-327.66
	329	0.66	-9.91520E-002	-4.57123E-006	0.00000E+000	-1.00000E-001	1.41091E-003	7	...........	-327.66
	330	0.662	-1.09156E-001	-4.59584E-006	0.00000E+000	-1.10000E-001	1.36091E-003	7	...........	-327.66
	331	0.664	-1.19174E-001	-4.62138E-006	0.00000E+000	-1.20000E-001	1.42126E-003	7	...........	-327.66
	332	0.666	-1.29192E-001	-4.64468E-006	0.00000E+000	-1.30000E-001	1.40574E-003	7	...........	-327.66
	333	0.668	-1.39111E-001	-4.66771E-006	0.00000E+000	-1.40000E-001	1.45402E-003	7	...........	-327.66
	334	0.67	-1.49180E-001	-4.69063E-006	0.00000E+000	-1.50000E-001	1.46436E-003	7	...........	-327.66
	335	0.672	-1.59167E-001	-4.71043E-006	0.00000E+000	-1.60000E-001	1.41436E-003	7	...........	-327.66
	336	0.674	-1.69143E-001	-4.73062E-006	0.00000E+000	-1.70000E-001	1.45574E-003	7	...........	-327.66
	337	0.676	-1.79172E-001	-4.75122E-006	0.00000E+000	-1.80000E-001	1.38850E-003	7	...........	-327.66
	338	0.678	-1.89110E-001	-4.76840E-006	0.00000E+000	-1.90000E-001	1.40057E-003	7	...........	-327.66
	339	0.68	-1.99180E-001	-4.78740E-006	0.00000E+000	-2.00000E-001	1.41264E-003	7	...........	-327.66
	340	0.682	-2.09166E-001	-4.80285E-006	0.00000E+000	-2.10000E-001	1.39022E-003	7	...........	-327.66
	341	0.684	-2.19095E-001	-4.81844E-006	0.00000E+000	-2.20000E-001	1.45402E-003	7	...........	-327.66
	342	0.686	-2.29139E-001	-4.83263E-006	0.00000E+000	-2.30000E-001	1.41091E-003	7	...........	-327.66
	343	0.688	-2.39158E-001	-4.84644E-006	0.00000E+000	-2.40000E-001	1.44195E-003	7	...........	-327.66
	344	0.69	-2.49140E-001	-4.85919E-006	0.00000E+000	-2.50000E-001	1.39540E-003	7	...........	-327.66
	345	0.692	-2.59130E-001	-4.87021E-006	0.00000E+000	-2.60000E-001	1.41609E-003	7	...........	-327.66
	346	0.694	-2.69091E-001	-4.88038E-006	0.00000E+000	-2.70000E-001	1.43160E-003	7	...........	-327.66
	347	0.696	-2.79149E-001	-4.88950E-006	0.00000E+000	-2.80000E-001	1.44367E-003	7	...........	-327.66
	348	0.698	-2.89119E-001	-4.89737E-006	0.00000E+000	-2.90000E-001	1.44712E-003	7	...........	-327.66
	349	0.7	-2.99127E-001	-4.90428E-006	0.00000E+000	-3.00000E-001	1.41091E-003	7	...........	-327.66
	350	0.702	-3.09153E-001	-4.90975E-006	0.00000E+000	-3.10000E-001	1.43678E-003	7	...........	-327.66
	351	0.704	-3.19149E-001	-4.91409E-006	0.00000E+000	-3.20000E-001	1.46953E-003	7	...........	-327.66
	352	0.706	-3.29183E-001	-4.91761E-006	0.00000E+000	-3.30000E-001	1.36609E-003	7	...........	-327.66
	353	0.708	-3.39165E-001	-4.92166E-006	0.00000E+000	-3.40000E-001	1.42298E-003	7	...........	-327.66
	354	0.71	-3.49123E-001	-4.92218E-006	0.00000E+000	-3.50000E-001	1.40402E-003	7	...........	-327.66
	355	0.712	-3.59167E-001	-4.92283E-006	0.00000E+000	-3.60000E-001	1.40402E-003	7	...........	-327.66
	356	0.714	-3.69017E-001	-4.92233E-006	0.00000E+000	-3.70000E-001	1.39712E-003	7	...........	-327.66
	357	0.716	-3.79135E-001	-4.92213E-006	0.00000E+000	-3.80000E-001	1.38678E-003	7	...........	-327.66
	358	0.718	-3.89118E-001	-4.92071E-006	0.00000E+000	-3.90000E-001	1.45057E-003	7	...........	-327.66
	359	0.72	-3.99125E-001	-4.91794E-006	0.00000E+000	-4.00000E-001	1.43160E-003	7	...........	-327.66
	360	0.722	-4.09142E-001	-4.91513E-006	0.00000E+000	-4.10000E-001	1.41264E-003	7	...........	-327.66
	361	0.724	-4.19110E-001	-4.91276E-006	0.00000E+000	-4.20000E-001	1.43333E-003	7	...........	-327.66
	362	0.726	-4.29087E-001	-4.90883E-006	0.00000E+000	-4.30000E-001	1.45229E-003	7	...........	-327.66
	363	0.728	-4.39168E-001	-4.90426E-006	0.00000E+000	-4.40000E-001	1.41091E-003	7	...........	-327.66
	364	0.73	-4.49062E-001	-4.89990E-006	0.00000E+000	-4.50000E-001	1.42471E-003	7	...........	-327.66
	365	0.732	-4.59139E-001	-4.89566E-006	0.00000E+000	-4.60000E-001	1.36609E-003	7	...........	-327.66
	366	0.734	-4.69067E-001	-4.89071E-006	0.00000E+000	-4.70000E-001	1.42471E-003	7	...........	-327.66
	367	0.736	-4.79093E-001	-4.88619E-006	0.00000E+000	-4.80000E-001	1.40402E-003	7	...........	-327.66
	368	0.738	-4.89123E-001	-4.88078E-006	0.00000E+000	-4.90000E-001	1.39022E-003	7	...........	-327.66
	369	0.74	-4.99057E-001	-4.87652E-006	0.00000E+000	-5.00000E-001	1.42815E-003	7	...........	-327.66
	370	0.742	-5.09099E-001	-4.87098E-006	0.00000E+000	-5.10000E-001	1.44884E-003	7	...........	-327.66
	371	0.744	-5.19154E-001	-4.86660E-006	0.00000E+000	-5.20000E-001	1.43678E-003	7	...........	-327.66
	372	0.746	-5.29093E-001	-4.85907E-006	0.00000E+000	-5.30000E-001	1.37643E-003	7	...........	-327.66
	373	0.748	-5.39133E-001	-4.85163E-006	0.00000E+000	-5.40000E-001	1.38333E-003	7	...........	-327.66
	374	0.75	-5.49065E-001	-4.84372E-006	0.00000E+000	-5.50000E-001	1.43333E-003	7	...........	-327.66
	375	0.752	-5.59153E-001	-4.83263E-006	0.00000E+000	-5.60000E-001	1.39884E-003	7	...........	-327.66
[...]
	701	1.404	-8.19153E-001	-1.76894E-006	0.00000E+000	-8.20000E-001	1.38333E-003	7	...........	-327.66
	702	1.406	-8.29049E-001	-1.64265E-006	0.00000E+000	-8.30000E-001	1.38505E-003	7	...........	-327.66
	703	1.408	-8.39136E-001	-1.52903E-006	0.00000E+000	-8.40000E-001	1.40574E-003	7	...........	-327.66
	704	1.41	-8.49112E-001	-1.42651E-006	0.00000E+000	-8.50000E-001	1.43678E-003	7	...........	-327.66
	705	1.412	-8.59064E-001	-1.33741E-006	0.00000E+000	-8.60000E-001	1.43160E-003	7	...........	-327.66
	706	1.414	-8.69135E-001	-1.25921E-006	0.00000E+000	-8.70000E-001	1.46953E-003	7	...........	-327.66
	707	1.416	-8.79151E-001	-1.18905E-006	0.00000E+000	-8.80000E-001	1.41436E-003	7	...........	-327.66
	708	1.418	-8.89103E-001	-1.12673E-006	0.00000E+000	-8.90000E-001	1.43160E-003	7	...........	-327.66
	709	1.42	-8.99114E-001	-1.07246E-006	0.00000E+000	-9.00000E-001	1.42988E-003	7	...........	-327.66
	710	1.422	-8.90672E-001	-9.52224E-007	0.00000E+000	-8.90000E-001	1.43678E-003	7	...........	-327.66
	711	1.424	-8.80672E-001	-8.66971E-007	0.00000E+000	-8.80000E-001	1.41436E-003	7	...........	-327.66
	712	1.426	-8.70657E-001	-8.01911E-007	0.00000E+000	-8.70000E-001	1.44195E-003	7	...........	-327.66
	713	1.428	-8.60691E-001	-7.44420E-007	0.00000E+000	-8.60000E-001	1.44022E-003	7	...........	-327.66
	714	1.43	-8.50714E-001	-6.93930E-007	0.00000E+000	-8.50000E-001	1.40747E-003	7	...........	-327.66
	715	1.432	-8.40682E-001	-6.46958E-007	0.00000E+000	-8.40000E-001	1.44195E-003	7	...........	-327.66
	716	1.434	-8.30499E-001	-6.02211E-007	0.00000E+000	-8.30000E-001	1.44022E-003	7	...........	-327.66
	717	1.436	-8.20680E-001	-5.60033E-007	0.00000E+000	-8.20000E-001	1.44367E-003	7	...........	-327.66
	718	1.438	-8.10651E-001	-5.16889E-007	0.00000E+000	-8.10000E-001	1.38850E-003	7	...........	-327.66
	719	1.44	-8.00707E-001	-4.74694E-007	0.00000E+000	-8.00000E-001	1.41781E-003	7	...........	-327.66
	720	1.442	-7.90664E-001	-4.30653E-007	0.00000E+000	-7.90000E-001	1.38160E-003	7	...........	-327.66
	721	1.444	-7.80609E-001	-3.85578E-007	0.00000E+000	-7.80000E-001	1.36781E-003	7	...........	-327.66
	722	1.446	-7.70627E-001	-3.36192E-007	0.00000E+000	-7.70000E-001	1.39884E-003	7	...........	-327.66
	723	1.448	-7.60650E-001	-2.84081E-007	0.00000E+000	-7.60000E-001	1.41264E-003	7	...........	-327.66
	724	1.45	-7.50693E-001	-2.26574E-007	0.00000E+000	-7.50000E-001	1.38850E-003	7	...........	-327.66
	725	1.452	-7.40741E-001	-1.64410E-007	0.00000E+000	-7.40000E-001	1.39022E-003	7	...........	-327.66
	726	1.454	-7.30671E-001	-9.56592E-008	0.00000E+000	-7.30000E-001	1.40402E-003	7	...........	-327.66
	727	1.456	-7.20713E-001	-1.99592E-008	0.00000E+000	-7.20000E-001	1.42471E-003	7	...........	-327.66
	728	1.458	-7.10666E-001	6.49662E-008	0.00000E+000	-7.10000E-001	1.41436E-003	7	...........	-327.66
	729	1.46	-7.00745E-001	1.58789E-007	0.00000E+000	-7.00000E-001	1.41781E-003	7	...........	-327.66
	730	1.462	-6.90719E-001	2.64424E-007	0.00000E+000	-6.90000E-001	1.38678E-003	7	...........	-327.66
	731	1.464	-6.80668E-001	3.81992E-007	0.00000E+000	-6.80000E-001	1.39195E-003	7	...........	-327.66
	732	1.466	-6.70655E-001	5.13096E-007	0.00000E+000	-6.70000E-001	1.41091E-003	7	...........	-327.66
	733	1.468	-6.60721E-001	6.57668E-007	0.00000E+000	-6.60000E-001	1.42643E-003	7	...........	-327.66
	734	1.47	-6.50687E-001	8.19690E-007	0.00000E+000	-6.50000E-001	1.43850E-003	7	...........	-327.66
	735	1.472	-6.40746E-001	9.98369E-007	0.00000E+000	-6.40000E-001	1.44022E-003	7	...........	-327.66
	736	1.474	-6.30672E-001	1.19603E-006	0.00000E+000	-6.30000E-001	1.45574E-003	7	...........	-327.66
	737	1.476	-6.20764E-001	1.41232E-006	0.00000E+000	-6.20000E-001	1.39884E-003	7	...........	-327.66
	738	1.478	-6.10749E-001	1.64849E-006	0.00000E+000	-6.10000E-001	1.41436E-003	7	...........	-327.66
	739	1.48	-6.00722E-001	1.90582E-006	0.00000E+000	-6.00000E-001	1.38160E-003	7	...........	-327.66
	740	1.482	-5.90720E-001	2.18200E-006	0.00000E+000	-5.90000E-001	1.38333E-003	7	...........	-327.66
	741	1.484	-5.80703E-001	2.47543E-006	0.00000E+000	-5.80000E-001	1.40057E-003	7	...........	-327.66
	742	1.486	-5.70735E-001	2.78404E-006	0.00000E+000	-5.70000E-001	1.40402E-003	7	...........	-327.66
	743	1.488	-5.60767E-001	3.10838E-006	0.00000E+000	-5.60000E-001	1.46953E-003	7	...........	-327.66
	744	1.49	-5.50667E-001	3.44094E-006	0.00000E+000	-5.50000E-001	1.37988E-003	7	...........	-327.66
	745	1.492	-5.40748E-001	3.76995E-006	0.00000E+000	-5.40000E-001	1.42298E-003	7	...........	-327.66
	746	1.494	-5.30762E-001	4.09412E-006	0.00000E+000	-5.30000E-001	1.41436E-003	7	...........	-327.66
	747	1.496	-5.20767E-001	4.40059E-006	0.00000E+000	-5.20000E-001	1.46264E-003	7	...........	-327.66
	748	1.498	-5.10757E-001	4.67275E-006	0.00000E+000	-5.10000E-001	1.38333E-003	7	...........	-327.66
	749	1.5	-5.00723E-001	4.90230E-006	0.00000E+000	-5.00000E-001	1.43505E-003	7	...........	-327.66
	750	1.502	-4.90756E-001	5.08020E-006	0.00000E+000	-4.90000E-001	1.40229E-003	7	...........	-327.66
	751	1.504	-4.80762E-001	5.20098E-006	0.00000E+000	-4.80000E-001	1.38505E-003	7	...........	-327.66
	752	1.506	-4.70684E-001	5.26692E-006	0.00000E+000	-4.70000E-001	1.35919E-003	7	...........	-327.66
	753	1.508	-4.60766E-001	5.28418E-006	0.00000E+000	-4.60000E-001	1.47471E-003	7	...........	-327.66
	754	1.51	-4.50731E-001	5.26343E-006	0.00000E+000	-4.50000E-001	1.44195E-003	7	...........	-327.66
	755	1.512	-4.40773E-001	5.21068E-006	0.00000E+000	-4.40000E-001	1.40057E-003	7	...........	-327.66
	756	1.514	-4.30767E-001	5.14105E-006	0.00000E+000	-4.30000E-001	1.45402E-003	7	...........	-327.66
	757	1.516	-4.20745E-001	5.06163E-006	0.00000E+000	-4.20000E-001	1.41953E-003	7	...........	-327.66
	758	1.518	-4.10781E-001	4.97955E-006	0.00000E+000	-4.10000E-001	1.39195E-003	7	...........	-327.66
	759	1.52	-4.00779E-001	4.89975E-006	0.00000E+000	-4.00000E-001	1.40229E-003	7	...........	-327.66
	760	1.522	-3.90755E-001	4.82555E-006	0.00000E+000	-3.90000E-001	1.39540E-003	7	...........	-327.66
	761	1.524	-3.80799E-001	4.75719E-006	0.00000E+000	-3.80000E-001	1.42643E-003	7	...........	-327.66
	762	1.526	-3.70747E-001	4.69922E-006	0.00000E+000	-3.70000E-001	1.43333E-003	7	...........	-327.66
	763	1.528	-3.60768E-001	4.64747E-006	0.00000E+000	-3.60000E-001	1.38505E-003	7	...........	-327.66
	764	1.53	-3.50760E-001	4.60541E-006	0.00000E+000	-3.50000E-001	1.40574E-003	7	...........	-327.66
	765	1.532	-3.40793E-001	4.56984E-006	0.00000E+000	-3.40000E-001	1.37643E-003	7	...........	-327.66
	766	1.534	-3.30793E-001	4.54068E-006	0.00000E+000	-3.30000E-001	1.37298E-003	7	...........	-327.66
	767	1.536	-3.20782E-001	4.51761E-006	0.00000E+000	-3.20000E-001	1.35747E-003	7	...........	-327.66
	768	1.538	-3.10764E-001	4.50023E-006	0.00000E+000	-3.10000E-001	1.40919E-003	7	...........	-327.66
	769	1.54	-3.00772E-001	4.48379E-006	0.00000E+000	-3.00000E-001	1.48505E-003	7	...........	-327.66
	770	1.542	-2.90765E-001	4.46932E-006	0.00000E+000	-2.90000E-001	1.44540E-003	7	...........	-327.66
	771	1.544	-2.80766E-001	4.45743E-006	0.00000E+000	-2.80000E-001	1.42471E-003	7	...........	-327.66
	772	1.546	-2.70719E-001	4.44563E-006	0.00000E+000	-2.70000E-001	1.41953E-003	7	...........	-327.66
	773	1.548	-2.60761E-001	4.43456E-006	0.00000E+000	-2.60000E-001	1.39712E-003	7	...........	-327.66
	774	1.55	-2.50793E-001	4.42565E-006	0.00000E+000	-2.50000E-001	1.44022E-003	7	...........	-327.66
	775	1.552	-2.40749E-001	4.41602E-006	0.00000E+000	-2.40000E-001	1.46091E-003	7	...........	-327.66
	776	1.554	-2.30760E-001	4.40920E-006	0.00000E+000	-2.30000E-001	1.42988E-003	7	...........	-327.66
	777	1.556	-2.20724E-001	4.40118E-006	0.00000E+000	-2.20000E-001	1.41609E-003	7	...........	-327.66
	778	1.558	-2.10768E-001	4.39487E-006	0.00000E+000	-2.10000E-001	1.38505E-003	7	...........	-327.66
	779	1.56	-2.00824E-001	4.38871E-006	0.00000E+000	-2.00000E-001	1.40574E-003	7	...........	-327.66
	780	1.562	-1.90753E-001	4.38331E-006	0.00000E+000	-1.90000E-001	1.37126E-003	7	...........	-327.66
	781	1.564	-1.80799E-001	4.37848E-006	0.00000E+000	-1.80000E-001	1.41264E-003	7	...........	-327.66
	782	1.566	-1.70796E-001	4.37393E-006	0.00000E+000	-1.70000E-001	1.38333E-003	7	...........	-327.66
	783	1.568	-1.60786E-001	4.36935E-006	0.00000E+000	-1.60000E-001	1.49022E-003	7	...........	-327.66
	784	1.57	-1.50810E-001	4.36624E-006	0.00000E+000	-1.50000E-001	1.41781E-003	7	...........	-327.66
	785	1.572	-1.40760E-001	4.36203E-006	0.00000E+000	-1.40000E-001	1.36953E-003	7	...........	-327.66
	786	1.574	-1.30795E-001	4.35850E-006	0.00000E+000	-1.30000E-001	1.42643E-003	7	...........	-327.66
	787	1.576	-1.20817E-001	4.35596E-006	0.00000E+000	-1.20000E-001	1.39022E-003	7	...........	-327.66
	788	1.578	-1.10803E-001	4.35321E-006	0.00000E+000	-1.10000E-001	1.39884E-003	7	...........	-327.66
	789	1.58	-1.00806E-001	4.35065E-006	0.00000E+000	-1.00000E-001	1.38160E-003	7	...........	-327.66
	790	1.582	-9.08046E-002	4.34884E-006	0.00000E+000	-9.00000E-002	1.42126E-003	7	...........	-327.66
	791	1.584	-8.08037E-002	4.34521E-006	0.00000E+000	-8.00000E-002	1.38678E-003	7	...........	-327.66
	792	1.586	-7.08011E-002	4.34282E-006	0.00000E+000	-7.00000E-002	1.37988E-003	7	...........	-327.66
	793	1.588	-6.07839E-002	4.33984E-006	0.00000E+000	-6.00000E-002	1.39712E-003	7	...........	-327.66
	794	1.59	-5.08330E-002	4.33703E-006	0.00000E+000	-5.00000E-002	1.42471E-003	7	...........	-327.66
	795	1.592	-4.07701E-002	4.33393E-006	0.00000E+000	-4.00000E-002	1.42815E-003	7	...........	-327.66
	796	1.594	-3.07977E-002	4.32963E-006	0.00000E+000	-3.00000E-002	1.40057E-003	7	...........	-327.66
	797	1.596	-2.07908E-002	4.32558E-006	0.00000E+000	-2.00000E-002	1.44022E-003	7	...........	-327.66
	798	1.598	-1.07899E-002	4.32232E-006	0.00000E+000	-1.00000E-002	1.40919E-003	7	...........	-327.66
	799	1.6	-8.01141E-004	4.31727E-006	0.00000E+000	-1.49012E-008	1.43160E-003	7	...........	-327.66
	800	1.602	9.22213E-003	4.31223E-006	0.00000E+000	9.99999E-003	1.39022E-003	7	...........	-327.66
	801	1.604	1.92308E-002	4.30596E-006	0.00000E+000	2.00000E-002	1.41609E-003	7	...........	-327.66
	802	1.606	2.92109E-002	4.29982E-006	0.00000E+000	3.00000E-002	1.39712E-003	7	...........	-327.66
	803	1.608	3.91928E-002	4.29382E-006	0.00000E+000	4.00000E-002	1.43333E-003	7	...........	-327.66
	804	1.61	4.92247E-002	4.28530E-006	0.00000E+000	5.00000E-002	1.43850E-003	7	...........	-327.66
	805	1.612	5.92359E-002	4.27835E-006	0.00000E+000	6.00000E-002	1.39712E-003	7	...........	-327.66
	806	1.614	6.92239E-002	4.26971E-006	0.00000E+000	7.00000E-002	1.41264E-003	7	...........	-327.66
	807	1.616	7.92195E-002	4.26168E-006	0.00000E+000	8.00000E-002	1.37815E-003	7	...........	-327.66
	808	1.618	8.92609E-002	4.25309E-006	0.00000E+000	9.00000E-002	1.45402E-003	7	...........	-327.66
	809	1.62	9.92195E-002	4.24226E-006	0.00000E+000	1.00000E-001	1.41953E-003	7	...........	-327.66
	810	1.622	1.09213E-001	4.23298E-006	0.00000E+000	1.10000E-001	1.37126E-003	7	...........	-327.66
	811	1.624	1.19257E-001	4.22221E-006	0.00000E+000	1.20000E-001	1.44540E-003	7	...........	-327.66
	812	1.626	1.29227E-001	4.21220E-006	0.00000E+000	1.30000E-001	1.46609E-003	7	...........	-327.66
	813	1.628	1.39257E-001	4.20177E-006	0.00000E+000	1.40000E-001	1.40574E-003	7	...........	-327.66
	814	1.63	1.49232E-001	4.19080E-006	0.00000E+000	1.50000E-001	1.40229E-003	7	...........	-327.66
	815	1.632	1.59201E-001	4.17975E-006	0.00000E+000	1.60000E-001	1.37815E-003	7	...........	-327.66
	816	1.634	1.69265E-001	4.16909E-006	0.00000E+000	1.70000E-001	1.46436E-003	7	...........	-327.66
	817	1.636	1.79201E-001	4.15725E-006	0.00000E+000	1.80000E-001	1.39195E-003	7	...........	-327.66
	818	1.638	1.89220E-001	4.14550E-006	0.00000E+000	1.90000E-001	1.39367E-003	7	...........	-327.66
	819	1.64	1.99239E-001	4.13506E-006	0.00000E+000	2.00000E-001	1.42988E-003	7	...........	-327.66
	820	1.642	2.09195E-001	4.12328E-006	0.00000E+000	2.10000E-001	1.42988E-003	7	...........	-327.66
	821	1.644	2.19207E-001	4.11304E-006	0.00000E+000	2.20000E-001	1.39884E-003	7	...........	-327.66
	822	1.646	2.29202E-001	4.10214E-006	0.00000E+000	2.30000E-001	1.44022E-003	7	...........	-327.66
	823	1.648	2.39212E-001	4.09082E-006	0.00000E+000	2.40000E-001	1.41436E-003	7	...........	-327.66
	824	1.65	2.49257E-001	4.08039E-006	0.00000E+000	2.50000E-001	1.42643E-003	7	...........	-327.66
	825	1.652	2.59184E-001	4.06805E-006	0.00000E+000	2.60000E-001	1.41781E-003	7	...........	-327.66
	826	1.654	2.69208E-001	4.05903E-006	0.00000E+000	2.70000E-001	1.38505E-003	7	...........	-327.66
	827	1.656	2.79188E-001	4.04973E-006	0.00000E+000	2.80000E-001	1.39712E-003	7	...........	-327.66
	828	1.658	2.89195E-001	4.04023E-006	0.00000E+000	2.90000E-001	1.40747E-003	7	...........	-327.66
	829	1.66	2.99185E-001	4.02899E-006	0.00000E+000	3.00000E-001	1.40229E-003	7	...........	-327.66
	830	1.662	3.09179E-001	4.02228E-006	0.00000E+000	3.10000E-001	1.40402E-003	7	...........	-327.66
	831	1.664	3.19195E-001	4.01431E-006	0.00000E+000	3.20000E-001	1.40574E-003	7	...........	-327.66
	832	1.666	3.29215E-001	4.00809E-006	0.00000E+000	3.30000E-001	1.42126E-003	7	...........	-327.66
	833	1.668	3.39184E-001	4.00088E-006	0.00000E+000	3.40000E-001	1.43333E-003	7	...........	-327.66
	834	1.67	3.49204E-001	3.99428E-006	0.00000E+000	3.50000E-001	1.42298E-003	7	...........	-327.66
	835	1.672	3.59176E-001	3.99047E-006	0.00000E+000	3.60000E-001	1.37298E-003	7	...........	-327.66
	836	1.674	3.69195E-001	3.98607E-006	0.00000E+000	3.70000E-001	1.36781E-003	7	...........	-327.66
	837	1.676	3.79191E-001	3.98267E-006	0.00000E+000	3.80000E-001	1.40057E-003	7	...........	-327.66
	838	1.678	3.89183E-001	3.97991E-006	0.00000E+000	3.90000E-001	1.37643E-003	7	...........	-327.66
	839	1.68	3.99203E-001	3.97871E-006	0.00000E+000	4.00000E-001	1.42471E-003	7	...........	-327.66
	840	1.682	4.09180E-001	3.97934E-006	0.00000E+000	4.10000E-001	1.38505E-003	7	...........	-327.66
	841	1.684	4.19197E-001	3.97945E-006	0.00000E+000	4.20000E-001	1.42298E-003	7	...........	-327.66
	842	1.686	4.29186E-001	3.98119E-006	0.00000E+000	4.30000E-001	1.42815E-003	7	...........	-327.66
	843	1.688	4.39157E-001	3.98347E-006	0.00000E+000	4.40000E-001	1.37126E-003	7	...........	-327.66
	844	1.69	4.49179E-001	3.98800E-006	0.00000E+000	4.50000E-001	1.43333E-003	7	...........	-327.66
	845	1.692	4.59179E-001	3.99235E-006	0.00000E+000	4.60000E-001	1.37643E-003	7	...........	-327.66
	846	1.694	4.69181E-001	3.99999E-006	0.00000E+000	4.70000E-001	1.45402E-003	7	...........	-327.66
	847	1.696	4.79182E-001	4.00680E-006	0.00000E+000	4.80000E-001	1.44195E-003	7	...........	-327.66
	848	1.698	4.89170E-001	4.01659E-006	0.00000E+000	4.90000E-001	1.40574E-003	7	...........	-327.66
	849	1.7	4.99198E-001	4.02652E-006	0.00000E+000	5.00000E-001	1.39540E-003	7	...........	-327.66
	850	1.702	5.09159E-001	4.03803E-006	0.00000E+000	5.10000E-001	1.42643E-003	7	...........	-327.66
	851	1.704	5.19163E-001	4.05141E-006	0.00000E+000	5.20000E-001	1.42815E-003	7	...........	-327.66
	852	1.706	5.29210E-001	4.06606E-006	0.00000E+000	5.30000E-001	1.42988E-003	7	...........	-327.66
	853	1.708	5.39189E-001	4.08089E-006	0.00000E+000	5.40000E-001	1.41264E-003	7	...........	-327.66
	854	1.71	5.49176E-001	4.09879E-006	0.00000E+000	5.50000E-001	1.42471E-003	7	...........	-327.66
	855	1.712	5.59195E-001	4.11693E-006	0.00000E+000	5.60000E-001	1.40574E-003	7	...........	-327.66
	856	1.714	5.69173E-001	4.13811E-006	0.00000E+000	5.70000E-001	1.44022E-003	7	...........	-327.66
	857	1.716	5.79198E-001	4.15904E-006	0.00000E+000	5.80000E-001	1.44540E-003	7	...........	-327.66
	858	1.718	5.89160E-001	4.18189E-006	0.00000E+000	5.90000E-001	1.40574E-003	7	...........	-327.66
	859	1.72	5.99180E-001	4.20643E-006	0.00000E+000	6.00000E-001	1.40574E-003	7	...........	-327.66
CURVE4	TABLE
	Pt	T	Vf	Im	Vu	Sig	Ach	IERange	Over	Temp
	#	s	V vs. Ref.	A	V	V	V	#	bits	deg C
	860	1.722	5.90723E-001	2.84466E-006	0.00000E+000	5.90000E-001	1.44022E-003	7	...........	-327.66
	861	1.724	5.80783E-001	2.11913E-006	0.00000E+000	5.80000E-001	1.42815E-003	7	...........	-327.66
	862	1.726	5.70756E-001	1.59178E-006	0.00000E+000	5.70000E-001	1.42988E-003	7	...........	-327.66
	863	1.728	5.60763E-001	1.16084E-006	0.00000E+000	5.60000E-001	1.37298E-003	7	...........	-327.66
	864	1.73	5.50790E-001	7.95152E-007	0.00000E+000	5.50000E-001	1.39022E-003	7	...........	-327.66
	865	1.732	5.40782E-001	4.73970E-007	0.00000E+000	5.40000E-001	1.44712E-003	7	...........	-327.66
	866	1.734	5.30793E-001	1.88207E-007	0.00000E+000	5.30000E-001	1.44022E-003	7	...........	-327.66
	867	1.736	5.20763E-001	-6.91038E-008	0.00000E+000	5.20000E-001	1.41953E-003	7	...........	-327.66
	868	1.738	5.10761E-001	-3.05050E-007	0.00000E+000	5.10000E-001	1.42298E-003	7	...........	-327.66
	869	1.74	5.00826E-001	-5.20062E-007	0.00000E+000	5.00000E-001	1.40229E-003	7	...........	-327.66
	870	1.742	4.90765E-001	-7.17813E-007	0.00000E+000	4.90000E-001	1.38678E-003	7	...........	-327.66
	871	1.744	4.80746E-001	-9.01941E-007	0.00000E+000	4.80000E-001	1.37643E-003	7	...........	-327.66
	872	1.746	4.70772E-001	-1.07100E-006	0.00000E+000	4.70000E-001	1.37988E-003	7	...........	-327.66
	873	1.748	4.60782E-001	-1.23035E-006	0.00000E+000	4.60000E-001	1.45574E-003	7	...........	-327.66
	874	1.75	4.50837E-001	-1.37913E-006	0.00000E+000	4.50000E-001	1.45402E-003	7	...........	-327.66
	875	1.752	4.40760E-001	-1.51932E-006	0.00000E+000	4.40000E-001	1.35574E-003	7	...........	-327.66
	876	1.754	4.30789E-001	-1.65018E-006	0.00000E+000	4.30000E-001	1.37815E-003	7	...........	-327.66
	877	1.756	4.20800E-001	-1.77459E-006	0.00000E+000	4.20000E-001	1.45919E-003	7	...........	-327.66
	878	1.758	4.10797E-001	-1.89078E-006	0.00000E+000	4.10000E-001	1.39540E-003	7	...........	-327.66
	879	1.76	4.00807E-001	-2.00301E-006	0.00000E+000	4.00000E-001	1.46264E-003	7	...........	-327.66
	880	1.762	3.90791E-001	-2.10824E-006	0.00000E+000	3.90000E-001	1.40229E-003	7	...........	-327.66
	881	1.764	3.80789E-001	-2.20795E-006	0.00000E+000	3.80000E-001	1.36436E-003	7	...........	-327.66
	882	1.766	3.70828E-001	-2.30315E-006	0.00000E+000	3.70000E-001	1.41264E-003	7	...........	-327.66
	883	1.768	3.60782E-001	-2.39502E-006	0.00000E+000	3.60000E-001	1.37126E-003	7	...........	-327.66
	884	1.77	3.50791E-001	-2.48329E-006	0.00000E+000	3.50000E-001	1.40057E-003	7	...........	-327.66
	885	1.772	3.40818E-001	-2.56619E-006	0.00000E+000	3.40000E-001	1.39884E-003	7	...........	-327.66
	886	1.774	3.30811E-001	-2.64601E-006	0.00000E+000	3.30000E-001	1.35402E-003	7	...........	-327.66
	887	1.776	3.20789E-001	-2.72431E-006	0.00000E+000	3.20000E-001	1.39540E-003	7	...........	-327.66
	888	1.778	3.10792E-001	-2.79823E-006	0.00000E+000	3.10000E-001	1.43850E-003	7	...........	-327.66
	889	1.78	3.00809E-001	-2.86964E-006	0.00000E+000	3.00000E-001	1.41091E-003	7	...........	-327.66
	890	1.782	2.90806E-001	-2.93756E-006	0.00000E+000	2.90000E-001	1.45919E-003	7	...........	-327.66
	891	1.784	2.80778E-001	-3.00464E-006	0.00000E+000	2.80000E-001	1.37988E-003	7	...........	-327.66
	892	1.786	2.70827E-001	-3.06948E-006	0.00000E+000	2.70000E-001	1.38160E-003	7	...........	-327.66
	893	1.788	2.60796E-001	-3.13302E-006	0.00000E+000	2.60000E-001	1.37988E-003	7	...........	-327.66
	894	1.79	2.50834E-001	-3.19134E-006	0.00000E+000	2.50000E-001	1.38850E-003	7	...........	-327.66
	895	1.792	2.40809E-001	-3.25085E-006	0.00000E+000	2.40000E-001	1.39367E-003	7	...........	-327.66
	896	1.794	2.30791E-001	-3.30865E-006	0.00000E+000	2.30000E-001	1.43160E-003	7	...........	-327.66
	897	1.796	2.20844E-001	-3.36312E-006	0.00000E+000	2.20000E-001	1.41091E-003	7	...........	-327.66
	898	1.798	2.10794E-001	-3.41761E-006	0.00000E+000	2.10000E-001	1.37298E-003	7	...........	-327.66
	899	1.8	2.00807E-001	-3.47010E-006	0.00000E+000	2.00000E-001	1.41609E-003	7	...........	-327.66
	900	1.802	1.90871E-001	-3.52187E-006	0.00000E+000	1.90000E-001	1.44367E-003	7	...........	-327.66