File: Test_Data_Files/20250509_IF0011_IIA42_PBSair_E03_E_CV50000_PEDOT.DTA
EXPLAIN
TAG	CV
TITLE	LABEL	CV50000	Test Identifier
DATE	LABEL	5/9/2025	Date
TIME	LABEL	14:46:40	Time
NOTES	NOTES	1	Notes...

PSTAT	PSTAT	REF600P-43058	Potentiostat
VINIT	POTEN	0.00000E+000	T	Initial E (V)
VLIMIT1	POTEN	-9.00000E-001	F	Scan Limit 1 (V)
VLIMIT2	POTEN	6.00000E-001	F	Scan Limit 2 (V)
VFINAL	POTEN	0.00000E+000	T	Final E (V)
SCANRATE	QUANT	4.99999E+004	Scan Rate (mV/s)
STEPSIZE	QUANT	1.00000E+001	Step Size (mV)
CYCLES	IQUANT	3	Cycles (#)
IMODE	SELECTOR	1	I/E Range Mode
IRANGE	QUANT	1.00000E-002	Max Current (mA)
AREA	QUANT	1.00000E+000	Sample Area (cm^2)
EQDELAY	QUANT	5.00000E+000	Equil. Time (s)
IRCOMP	SELECTOR	0	IRComp
PFCOR	QUANT	5.00000E+001	PF Corr. (ohm)
SAMPLINGMODE	SELECTOR	2	Sampling Mode
EOC	QUANT	0.1704582	Open Circuit (V)
ELECTRODETYPE	SELECTOR	0	Electrode Type
STRIPPING	TOGGLE	F	Used for Stripping
SEQUENCER	TOGGLE	TRUE	Run as Sequence
PSTATMODEL	IQUANT	7	Pstat Model
PSTATSECTION	LABEL	REF600P-43058	Pstat Section
PSTATSERIALNO	LABEL	43058	Pstat Serial Number
CTRLMODE	IQUANT	1	Control Mode
ELECTROMETER	IQUANT	0	RE=0 or CS=1
IESTAB	IQUANT	2	I/E Stability
CASPEED	IQUANT	4	Control Amp Speed
CONVENTION	IQUANT	1	Current Convention
ICHRANGE	IQUANT	2	Ich Range
ICHRANGEMODE	TOGGLE	F	Ich Auto Range
ICHOFFSETENABLE	TOGGLE	F	Ich Offset Enable
ICHOFFSET	QUANT	0	Ich Offset (V)
ICHFILTER	IQUANT	1	Ich Filter
VCHRANGE	IQUANT	2	Vch Range
VCHRANGEMODE	TOGGLE	F	Vch Auto Range
VCHOFFSETENABLE	TOGGLE	F	Vch Offset Enable
VCHOFFSET	QUANT	0	Vch Offset (V)
VCHFILTER	IQUANT	1	Vch Filter
ACHRANGE	IQUANT	2	Ach Range
ACHOFFSETENABLE	TOGGLE	F	Ach Offset Enable
ACHOFFSET	QUANT	0	Ach Offset (V)
ACHFILTER	IQUANT	1	Ach Filter
IERANGELOWERLIMIT	IQUANT	1	I/E Range Lower Limit
IERANGEMODE	TOGGLE	F	I/E AutoRange
IERANGE	IQUANT	7	I/E Range
POSFEEDENABLE	TOGGLE	F	Positive Feedback IR Comp
POSFEEDRESISTANCE	QUANT	0	Positive Feedback Resistance (ohm)
ACHSELECT	IQUANT	4	Ach Select
SENSECABLEID	IQUANT	7	Sense Cable ID
PWRCABLEID	IQUANT	7	Power Cable ID
DCCALDATE	LABEL	5/8/2025	DC Calibration Date
ACCALDATE	LABEL	5/8/2025	AC Calibration Date
THERMOSELECT	IQUANT	1	Thermo Select
FRAMEWORKVERSION	LABEL	7.10.4	Framework Version
INSTRUMENTVERSION	LABEL	5.01	Instrument Version
COMMVERSION	LABEL	5.10	Communications Version
CPUPLDVERSION	LABEL	6.00	CPU PLD Version
CTRLPLDVERSION	LABEL	3.21	CTRL PLD Version
PSTATPLDVERSION	LABEL	0.00	PSTAT PLD Version
CURVE1	TABLE
	Pt	T	Vf	Im	Vu	Sig	Ach	IERange	Over	Temp
	#	s	V vs. Ref.	A	V	V	V	#	bits	deg C
	0	0.0002	1.70437E-001	8.15501E-009	0.00000E+000	1.70450E-001	1.06522E-003	7	...........	-327.66
	1	0.0004	1.60575E-001	-1.21001E-006	0.00000E+000	1.60450E-001	1.04022E-003	7	...........	-327.66
	2	0.0006	1.50637E-001	-2.32091E-006	0.00000E+000	1.50450E-001	1.04022E-003	7	...........	-327.66
	3	0.0008	1.40587E-001	-3.23154E-006	0.00000E+000	1.40450E-001	9.90224E-004	7	...........	-327.66
	4	0.001	1.30512E-001	-4.01314E-006	0.00000E+000	1.30450E-001	1.04022E-003	7	...........	-327.66
	5	0.0012	1.20637E-001	-4.70424E-006	0.00000E+000	1.20450E-001	1.19022E-003	7	...........	-327.66
	6	0.0014	1.10562E-001	-5.32557E-006	0.00000E+000	1.10450E-001	1.06522E-003	7	...........	-327.66
	7	0.0016	1.00512E-001	-5.90365E-006	0.00000E+000	1.00450E-001	1.11522E-003	7	...........	-327.66
	8	0.0018	9.04373E-002	-6.43847E-006	0.00000E+000	9.04500E-002	9.40224E-004	7	...........	-327.66
	9	0.002	8.05873E-002	-6.94129E-006	0.00000E+000	8.04500E-002	1.01522E-003	7	...........	-327.66
	10	0.0022	7.05123E-002	-7.41836E-006	0.00000E+000	7.04500E-002	1.11522E-003	7	...........	-327.66
	11	0.0024	6.05248E-002	-7.87567E-006	0.00000E+000	6.04500E-002	1.04022E-003	7	...........	-327.66
	12	0.0026	5.05123E-002	-8.31298E-006	0.00000E+000	5.04500E-002	9.90224E-004	7	...........	-327.66
	13	0.0028	4.07248E-002	-8.72979E-006	0.00000E+000	4.04500E-002	1.06522E-003	7	...........	-327.66
	14	0.003	3.05623E-002	-9.13934E-006	0.00000E+000	3.04500E-002	1.09022E-003	7	...........	-327.66
	15	0.0032	2.06373E-002	-9.53640E-006	0.00000E+000	2.04500E-002	1.11522E-003	7	...........	-327.66
	16	0.0034	1.05998E-002	-9.92595E-006	0.00000E+000	1.04500E-002	1.01522E-003	7	...........	-327.66
	17	0.0036	6.49812E-004	-1.02962E-005	0.00000E+000	4.49985E-004	9.40224E-004	7	...........	-327.66
	18	0.0038	-9.55019E-003	-1.06665E-005	0.00000E+000	-9.55001E-003	9.65224E-004	7	...........	-327.66
	19	0.004	-1.94877E-002	-1.10303E-005	0.00000E+000	-1.95500E-002	1.04022E-003	7	...........	-327.66
	20	0.0042	-2.95502E-002	-1.13901E-005	0.00000E+000	-2.95500E-002	1.19022E-003	7	...........	-327.66
	21	0.0044	-3.93627E-002	-1.17369E-005	0.00000E+000	-3.95500E-002	1.14022E-003	7	...........	-327.66
	22	0.0046	-4.95252E-002	-1.20865E-005	0.00000E+000	-4.95500E-002	9.90224E-004	7	...........	-327.66
	23	0.0048	-5.94127E-002	-1.24345E-005	0.00000E+000	-5.95500E-002	1.16522E-003	7	...........	-327.66
	24	0.005	-6.93502E-002	-1.27718E-005	0.00000E+000	-6.95500E-002	1.11522E-003	7	...........	-327.66
	25	0.0052	-7.92252E-002	-1.31054E-005	0.00000E+000	-7.95500E-002	1.16522E-003	7	...........	-327.66
	26	0.0054	-8.94127E-002	-1.34422E-005	0.00000E+000	-8.95500E-002	1.01522E-003	7	...........	-327.66
	27	0.0056	-9.94127E-002	-1.37720E-005	0.00000E+000	-9.95500E-002	1.11522E-003	7	...........	-327.66
	28	0.0058	-1.09463E-001	-1.41023E-005	0.00000E+000	-1.09550E-001	1.24022E-003	7	...........	-327.66
	29	0.006	-1.19313E-001	-1.44261E-005	0.00000E+000	-1.19550E-001	1.19022E-003	7	...........	-327.66
	30	0.0062	-1.29488E-001	-1.47546E-005	0.00000E+000	-1.29550E-001	1.04022E-003	7	...........	-327.66
	31	0.0064	-1.39338E-001	-1.50779E-005	0.00000E+000	-1.39550E-001	1.09022E-003	7	...........	-327.66
	32	0.0066	-1.49488E-001	-1.54002E-005	0.00000E+000	-1.49550E-001	1.09022E-003	7	...........	-327.66
	33	0.0068	-1.59338E-001	-1.57225E-005	0.00000E+000	-1.59550E-001	1.14022E-003	7	...........	-327.66
	34	0.007	-1.69425E-001	-1.60438E-005	0.00000E+000	-1.69550E-001	1.19022E-003	7	...........	-327.66
	35	0.0072	-1.79413E-001	-1.63656E-005	0.00000E+000	-1.79550E-001	1.14022E-003	7	...........	-327.66
	36	0.0074	-1.89288E-001	-1.66844E-005	0.00000E+000	-1.89550E-001	1.01522E-003	7	...........	-327.66
	37	0.0076	-1.99275E-001	-1.70039E-005	0.00000E+000	-1.99550E-001	1.11522E-003	7	...........	-327.66
	38	0.0078	-2.09375E-001	-1.73237E-005	0.00000E+000	-2.09550E-001	1.14022E-003	7	...........	-327.66
	39	0.008	-2.19238E-001	-1.76408E-005	0.00000E+000	-2.19550E-001	8.90224E-004	7	...........	-327.66
	40	0.0082	-2.29375E-001	-1.79595E-005	0.00000E+000	-2.29550E-001	1.06522E-003	7	...........	-327.66
	41	0.0084	-2.39250E-001	-1.82821E-005	0.00000E+000	-2.39550E-001	1.14022E-003	7	...........	-327.66
	42	0.0086	-2.49338E-001	-1.85991E-005	0.00000E+000	-2.49550E-001	1.09022E-003	7	...........	-327.66
	43	0.0088	-2.59288E-001	-1.89197E-005	0.00000E+000	-2.59550E-001	1.11522E-003	7	...........	-327.66
	44	0.009	-2.69288E-001	-1.92370E-005	0.00000E+000	-2.69550E-001	1.11522E-003	7	...........	-327.66
	45	0.0092	-2.79300E-001	-1.95573E-005	0.00000E+000	-2.79550E-001	1.11522E-003	7	...........	-327.66
	46	0.0094	-2.89413E-001	-1.98756E-005	0.00000E+000	-2.89550E-001	9.65224E-004	7	...........	-327.66
	47	0.0096	-2.99375E-001	-2.01951E-005	0.00000E+000	-2.99550E-001	1.04022E-003	7	...........	-327.66
	48	0.0098	-3.09363E-001	-2.05191E-005	0.00000E+000	-3.09550E-001	1.24022E-003	7	...........	-327.66
	49	0.01	-3.19225E-001	-2.08369E-005	0.00000E+000	-3.19550E-001	1.21522E-003	7	...........	-327.66
	50	0.0102	-3.29325E-001	-2.11525E-005	0.00000E+000	-3.29550E-001	1.06522E-003	7	...........	-327.66
	51	0.0104	-3.39288E-001	-2.14735E-005	0.00000E+000	-3.39550E-001	1.16522E-003	7	...........	-327.66
	52	0.0106	-3.49400E-001	-2.17946E-005	0.00000E+000	-3.49550E-001	1.16522E-003	7	...........	-327.66
	53	0.0108	-3.59275E-001	-2.21104E-005	0.00000E+000	-3.59550E-001	9.90224E-004	7	...........	-327.66
	54	0.011	-3.69313E-001	-2.24314E-005	0.00000E+000	-3.69550E-001	1.06522E-003	7	...........	-327.66
	55	0.0112	-3.79338E-001	-2.27529E-005	0.00000E+000	-3.79550E-001	1.19022E-003	7	...........	-327.66
	56	0.0114	-3.89413E-001	-2.30702E-005	0.00000E+000	-3.89550E-001	1.04022E-003	7	...........	-327.66
	57	0.0116	-3.99300E-001	-2.33883E-005	0.00000E+000	-3.99550E-001	1.11522E-003	7	...........	-327.66
	58	0.0118	-4.09275E-001	-2.37116E-005	0.00000E+000	-4.09550E-001	1.16522E-003	7	...........	-327.66
	59	0.012	-4.19288E-001	-2.40266E-005	0.00000E+000	-4.19550E-001	1.14022E-003	7	...........	-327.66
	60	0.0122	-4.29363E-001	-2.43479E-005	0.00000E+000	-4.29550E-001	1.09022E-003	7	...........	-327.66
	61	0.0124	-4.39250E-001	-2.46695E-005	0.00000E+000	-4.39550E-001	1.01522E-003	7	...........	-327.66
	62	0.0126	-4.49338E-001	-2.49845E-005	0.00000E+000	-4.49550E-001	1.19022E-003	7	...........	-327.66
	63	0.0128	-4.59313E-001	-2.53003E-005	0.00000E+000	-4.59550E-001	1.06522E-003	7	...........	-327.66
	64	0.013	-4.69225E-001	-2.56183E-005	0.00000E+000	-4.69550E-001	1.11522E-003	7	...........	-327.66
	65	0.0132	-4.79238E-001	-2.59334E-005	0.00000E+000	-4.79550E-001	1.09022E-003	7	...........	-327.66
	66	0.0134	-4.89338E-001	-2.62497E-005	0.00000E+000	-4.89550E-001	1.06522E-003	7	...........	-327.66
	67	0.0136	-4.99250E-001	-2.65630E-005	0.00000E+000	-4.99550E-001	9.90224E-004	7	...........	-327.66
	68	0.0138	-5.09313E-001	-2.68735E-005	0.00000E+000	-5.09550E-001	1.24022E-003	7	...........	-327.66
	69	0.014	-5.19250E-001	-2.71856E-005	0.00000E+000	-5.19550E-001	9.90224E-004	7	...........	-327.66
	70	0.0142	-5.29388E-001	-2.74948E-005	0.00000E+000	-5.29550E-001	1.11522E-003	7	...........	-327.66
	71	0.0144	-5.39413E-001	-2.78044E-005	0.00000E+000	-5.39550E-001	1.11522E-003	7	...........	-327.66
	72	0.0146	-5.49300E-001	-2.81134E-005	0.00000E+000	-5.49550E-001	1.11522E-003	7	...........	-327.66
	73	0.0148	-5.59263E-001	-2.84150E-005	0.00000E+000	-5.59550E-001	9.15224E-004	7	...........	-327.66
	74	0.015	-5.69313E-001	-2.87198E-005	0.00000E+000	-5.69550E-001	1.14022E-003	7	...........	-327.66
	75	0.0152	-5.79250E-001	-2.90226E-005	0.00000E+000	-5.79550E-001	1.16522E-003	7	...........	-327.66
	76	0.0154	-5.89288E-001	-2.93203E-005	0.00000E+000	-5.89550E-001	1.14022E-003	7	...........	-327.66
	77	0.0156	-5.99263E-001	-2.96174E-005	0.00000E+000	-5.99550E-001	9.15224E-004	7	...........	-327.66
	78	0.0158	-6.09275E-001	-2.99107E-005	0.00000E+000	-6.09550E-001	1.16522E-003	7	...........	-327.66
	79	0.016	-6.19263E-001	-3.02000E-005	0.00000E+000	-6.19550E-001	1.06522E-003	7	...........	-327.66
	80	0.0162	-6.29213E-001	-3.04873E-005	0.00000E+000	-6.29550E-001	1.11522E-003	7	...........	-327.66
	81	0.0164	-6.39250E-001	-3.07750E-005	0.00000E+000	-6.39550E-001	9.65224E-004	7	...........	-327.66
	82	0.0166	-6.49313E-001	-3.10531E-005	0.00000E+000	-6.49550E-001	1.06522E-003	7	...........	-327.66
	83	0.0168	-6.59250E-001	-3.13286E-005	0.00000E+000	-6.59550E-001	1.14022E-003	7	...........	-327.66
	84	0.017	-6.69263E-001	-3.15977E-005	0.00000E+000	-6.69550E-001	1.16522E-003	7	...........	-327.66
	85	0.0172	-6.79188E-001	-3.18644E-005	0.00000E+000	-6.79550E-001	1.11522E-003	7	...........	-327.66
	86	0.0174	-6.89288E-001	-3.21305E-005	0.00000E+000	-6.89550E-001	1.16522E-003	7	...........	-327.66
	87	0.0176	-6.99263E-001	-3.23818E-005	0.00000E+000	-6.99550E-001	1.24022E-003	7	...........	-327.66
	88	0.0178	-7.09313E-001	-3.26295E-005	0.00000E+000	-7.09550E-001	1.19022E-003	7	...........	-327.66
	89	0.018	-7.19263E-001	-3.28743E-005	0.00000E+000	-7.19550E-001	1.19022E-003	7	...........	-327.66
	90	0.0182	-7.29088E-001	-3.31141E-005	0.00000E+000	-7.29550E-001	1.11522E-003	7	...........	-327.66
	91	0.0184	-7.39313E-001	-3.33431E-005	0.00000E+000	-7.39550E-001	1.11522E-003	7	...........	-327.66
	92	0.0186	-7.49263E-001	-3.35662E-005	0.00000E+000	-7.49550E-001	1.21522E-003	7	...........	-327.66
	93	0.0188	-7.59163E-001	-3.37767E-005	0.00000E+000	-7.59550E-001	1.14022E-003	7	...........	-327.66
	94	0.019	-7.69200E-001	-3.39760E-005	0.00000E+000	-7.69550E-001	1.09022E-003	7	...........	-327.66
	95	0.0192	-7.79250E-001	-3.41673E-005	0.00000E+000	-7.79550E-001	1.19022E-003	7	...........	-327.66
	96	0.0194	-7.89275E-001	-3.43470E-005	0.00000E+000	-7.89550E-001	1.14022E-003	7	...........	-327.66
	97	0.0196	-7.99263E-001	-3.45141E-005	0.00000E+000	-7.99550E-001	1.21522E-003	7	...........	-327.66
	98	0.0198	-8.09188E-001	-3.46668E-005	0.00000E+000	-8.09550E-001	1.09022E-003	7	...........	-327.66
	99	0.02	-8.19300E-001	-3.48101E-005	0.00000E+000	-8.19550E-001	1.01522E-003	7	...........	-327.66
	100	0.0202	-8.29200E-001	-3.49329E-005	0.00000E+000	-8.29550E-001	1.09022E-003	7	...........	-327.66
	101	0.0204	-8.39175E-001	-3.50426E-005	0.00000E+000	-8.39550E-001	9.40224E-004	7	...........	-327.66
	102	0.0206	-8.49175E-001	-3.51304E-005	0.00000E+000	-8.49550E-001	1.14022E-003	7	...........	-327.66
	103	0.0208	-8.59200E-001	-3.52011E-005	0.00000E+000	-8.59550E-001	1.21522E-003	7	...........	-327.66
	104	0.021	-8.69238E-001	-3.52502E-005	0.00000E+000	-8.69550E-001	1.01522E-003	7	...........	-327.66
	105	0.0212	-8.79238E-001	-3.52792E-005	0.00000E+000	-8.79550E-001	1.09022E-003	7	...........	-327.66
	106	0.0214	-8.89113E-001	-3.52777E-005	0.00000E+000	-8.89550E-001	1.14022E-003	7	...........	-327.66
	107	0.0216	-8.99275E-001	-3.52567E-005	0.00000E+000	-8.99550E-001	1.11522E-003	7	...........	-327.66
	108	0.0218	-8.89188E-001	-3.31209E-005	0.00000E+000	-8.89550E-001	9.40224E-004	7	...........	-327.66
	109	0.022	-8.79313E-001	-3.11011E-005	0.00000E+000	-8.79550E-001	9.90224E-004	7	...........	-327.66
	110	0.0222	-8.69325E-001	-2.93929E-005	0.00000E+000	-8.69550E-001	1.16522E-003	7	...........	-327.66
	111	0.0224	-8.59250E-001	-2.78844E-005	0.00000E+000	-8.59550E-001	1.24022E-003	7	...........	-327.66
	112	0.0226	-8.49338E-001	-2.65157E-005	0.00000E+000	-8.49550E-001	9.65224E-004	7	...........	-327.66
	113	0.0228	-8.39238E-001	-2.52428E-005	0.00000E+000	-8.39550E-001	1.11522E-003	7	...........	-327.66
	114	0.023	-8.29213E-001	-2.40444E-005	0.00000E+000	-8.29550E-001	1.16522E-003	7	...........	-327.66
	115	0.0232	-8.19250E-001	-2.29017E-005	0.00000E+000	-8.19550E-001	1.11522E-003	7	...........	-327.66
	116	0.0234	-8.09288E-001	-2.18093E-005	0.00000E+000	-8.09550E-001	1.06522E-003	7	...........	-327.66
	117	0.0236	-7.99263E-001	-2.07544E-005	0.00000E+000	-7.99550E-001	9.90224E-004	7	...........	-327.66
	118	0.0238	-7.89313E-001	-1.97268E-005	0.00000E+000	-7.89550E-001	9.90224E-004	7	...........	-327.66
	119	0.024	-7.79463E-001	-1.87301E-005	0.00000E+000	-7.79550E-001	1.16522E-003	7	...........	-327.66
	120	0.0242	-7.69288E-001	-1.77598E-005	0.00000E+000	-7.69550E-001	1.06522E-003	7	...........	-327.66
	121	0.0244	-7.59213E-001	-1.68076E-005	0.00000E+000	-7.59550E-001	1.11522E-003	7	...........	-327.66
	122	0.0246	-7.49313E-001	-1.58728E-005	0.00000E+000	-7.49550E-001	1.14022E-003	7	...........	-327.66
	123	0.0248	-7.39313E-001	-1.49561E-005	0.00000E+000	-7.39550E-001	1.14022E-003	7	...........	-327.66
	124	0.025	-7.29275E-001	-1.40553E-005	0.00000E+000	-7.29550E-001	1.06522E-003	7	...........	-327.66
	125	0.0252	-7.19300E-001	-1.31669E-005	0.00000E+000	-7.19550E-001	1.14022E-003	7	...........	-327.66
	126	0.0254	-7.09375E-001	-1.22908E-005	0.00000E+000	-7.09550E-001	1.24022E-003	7	...........	-327.66
	127	0.0256	-6.99375E-001	-1.14292E-005	0.00000E+000	-6.99550E-001	1.29022E-003	7	...........	-327.66
	128	0.0258	-6.89300E-001	-1.05775E-005	0.00000E+000	-6.89550E-001	1.06522E-003	7	...........	-327.66
	129	0.026	-6.79238E-001	-9.73667E-006	0.00000E+000	-6.79550E-001	1.04022E-003	7	...........	-327.66
	130	0.0262	-6.69363E-001	-8.91431E-006	0.00000E+000	-6.69550E-001	1.24022E-003	7	...........	-327.66
	131	0.0264	-6.59350E-001	-8.09445E-006	0.00000E+000	-6.59550E-001	1.11522E-003	7	...........	-327.66
	132	0.0266	-6.49225E-001	-7.28734E-006	0.00000E+000	-6.49550E-001	1.06522E-003	7	...........	-327.66
	133	0.0268	-6.39238E-001	-6.49448E-006	0.00000E+000	-6.39550E-001	1.04022E-003	7	...........	-327.66
	134	0.027	-6.29338E-001	-5.70912E-006	0.00000E+000	-6.29550E-001	1.09022E-003	7	...........	-327.66
	135	0.0272	-6.19313E-001	-4.93627E-006	0.00000E+000	-6.19550E-001	1.14022E-003	7	...........	-327.66
	136	0.0274	-6.09338E-001	-4.17466E-006	0.00000E+000	-6.09550E-001	1.06522E-003	7	...........	-327.66
	137	0.0276	-5.99325E-001	-3.41806E-006	0.00000E+000	-5.99550E-001	1.09022E-003	7	...........	-327.66
	138	0.0278	-5.89350E-001	-2.67846E-006	0.00000E+000	-5.89550E-001	1.19022E-003	7	...........	-327.66
	139	0.028	-5.79350E-001	-1.94186E-006	0.00000E+000	-5.79550E-001	1.11522E-003	7	...........	-327.66
	140	0.0282	-5.69463E-001	-1.22551E-006	0.00000E+000	-5.69550E-001	1.04022E-003	7	...........	-327.66
	141	0.0284	-5.59263E-001	-5.14416E-007	0.00000E+000	-5.59550E-001	1.01522E-003	7	...........	-327.66
	142	0.0286	-5.49400E-001	1.93180E-007	0.00000E+000	-5.49550E-001	1.09022E-003	7	...........	-327.66
	143	0.0288	-5.39463E-001	8.81024E-007	0.00000E+000	-5.39550E-001	1.01522E-003	7	...........	-327.66
	144	0.029	-5.29475E-001	1.56362E-006	0.00000E+000	-5.29550E-001	1.04022E-003	7	...........	-327.66
	145	0.0292	-5.19375E-001	2.23521E-006	0.00000E+000	-5.19550E-001	1.24022E-003	7	...........	-327.66
	146	0.0294	-5.09488E-001	2.89780E-006	0.00000E+000	-5.09550E-001	1.06522E-003	7	...........	-327.66
	147	0.0296	-4.99413E-001	3.55164E-006	0.00000E+000	-4.99550E-001	1.06522E-003	7	...........	-327.66
	148	0.0298	-4.89538E-001	4.19823E-006	0.00000E+000	-4.89550E-001	1.09022E-003	7	...........	-327.66
	149	0.03	-4.79463E-001	4.83056E-006	0.00000E+000	-4.79550E-001	9.90224E-004	7	...........	-327.66
	150	0.0302	-4.69363E-001	5.45865E-006	0.00000E+000	-4.69550E-001	1.09022E-003	7	...........	-327.66
	151	0.0304	-4.59350E-001	6.07798E-006	0.00000E+000	-4.59550E-001	1.04022E-003	7	...........	-327.66
	152	0.0306	-4.49438E-001	6.68707E-006	0.00000E+000	-4.49550E-001	9.90224E-004	7	...........	-327.66
	153	0.0308	-4.39288E-001	7.28890E-006	0.00000E+000	-4.39550E-001	1.24022E-003	7	...........	-327.66
	154	0.031	-4.29413E-001	7.87373E-006	0.00000E+000	-4.29550E-001	9.90224E-004	7	...........	-327.66
	155	0.0312	-4.19513E-001	8.46006E-006	0.00000E+000	-4.19550E-001	1.01522E-003	7	...........	-327.66
	156	0.0314	-4.09513E-001	9.03488E-006	0.00000E+000	-4.09550E-001	1.06522E-003	7	...........	-327.66
	157	0.0316	-3.99463E-001	9.59671E-006	0.00000E+000	-3.99550E-001	1.21522E-003	7	...........	-327.66
	158	0.0318	-3.89513E-001	1.01565E-005	0.00000E+000	-3.89550E-001	1.11522E-003	7	...........	-327.66
	159	0.032	-3.79525E-001	1.07056E-005	0.00000E+000	-3.79550E-001	1.06522E-003	7	...........	-327.66
	160	0.0322	-3.69525E-001	1.12419E-005	0.00000E+000	-3.69550E-001	1.21522E-003	7	...........	-327.66
	161	0.0324	-3.59550E-001	1.17758E-005	0.00000E+000	-3.59550E-001	8.65224E-004	7	...........	-327.66
	162	0.0326	-3.49450E-001	1.22993E-005	0.00000E+000	-3.49550E-001	1.14022E-003	7	...........	-327.66
	163	0.0328	-3.39563E-001	1.28142E-005	0.00000E+000	-3.39550E-001	1.11522E-003	7	...........	-327.66
	164	0.033	-3.29588E-001	1.33212E-005	0.00000E+000	-3.29550E-001	1.06522E-003	7	...........	-327.66
	165	0.0332	-3.19413E-001	1.38165E-005	0.00000E+000	-3.19550E-001	1.21522E-003	7	...........	-327.66
	166	0.0334	-3.09525E-001	1.43049E-005	0.00000E+000	-3.09550E-001	1.24022E-003	7	...........	-327.66
	167	0.0336	-2.99475E-001	1.47817E-005	0.00000E+000	-2.99550E-001	1.09022E-003	7	...........	-327.66
	168	0.0338	-2.89563E-001	1.52537E-005	0.00000E+000	-2.89550E-001	1.09022E-003	7	...........	-327.66
	169	0.034	-2.79325E-001	1.57158E-005	0.00000E+000	-2.79550E-001	1.14022E-003	7	...........	-327.66
	170	0.0342	-2.69438E-001	1.61656E-005	0.00000E+000	-2.69550E-001	1.19022E-003	7	...........	-327.66
	171	0.0344	-2.59488E-001	1.66099E-005	0.00000E+000	-2.59550E-001	1.09022E-003	7	...........	-327.66
	172	0.0346	-2.49613E-001	1.70405E-005	0.00000E+000	-2.49550E-001	1.14022E-003	7	...........	-327.66
	173	0.0348	-2.39375E-001	1.74658E-005	0.00000E+000	-2.39550E-001	1.29022E-003	7	...........	-327.66
	174	0.035	-2.29650E-001	1.78781E-005	0.00000E+000	-2.29550E-001	1.11522E-003	7	...........	-327.66
	175	0.0352	-2.19475E-001	1.82821E-005	0.00000E+000	-2.19550E-001	1.14022E-003	7	...........	-327.66
	176	0.0354	-2.09588E-001	1.86774E-005	0.00000E+000	-2.09550E-001	1.04022E-003	7	...........	-327.66
	177	0.0356	-1.99613E-001	1.90620E-005	0.00000E+000	-1.99550E-001	1.16522E-003	7	...........	-327.66
	178	0.0358	-1.89638E-001	1.94411E-005	0.00000E+000	-1.89550E-001	1.11522E-003	7	...........	-327.66
	179	0.036	-1.79625E-001	1.98041E-005	0.00000E+000	-1.79550E-001	1.11522E-003	7	...........	-327.66
	180	0.0362	-1.69638E-001	2.01602E-005	0.00000E+000	-1.69550E-001	1.06522E-003	7	...........	-327.66
	181	0.0364	-1.59488E-001	2.05092E-005	0.00000E+000	-1.59550E-001	1.11522E-003	7	...........	-327.66
	182	0.0366	-1.49625E-001	2.08435E-005	0.00000E+000	-1.49550E-001	1.09022E-003	7	...........	-327.66
	183	0.0368	-1.39425E-001	2.11738E-005	0.00000E+000	-1.39550E-001	1.04022E-003	7	...........	-327.66
	184	0.037	-1.29663E-001	2.14931E-005	0.00000E+000	-1.29550E-001	1.21522E-003	7	...........	-327.66
	185	0.0372	-1.19613E-001	2.18021E-005	0.00000E+000	-1.19550E-001	1.11522E-003	7	...........	-327.66
	186	0.0374	-1.09625E-001	2.21022E-005	0.00000E+000	-1.09550E-001	1.21522E-003	7	...........	-327.66
	187	0.0376	-9.95627E-002	2.23942E-005	0.00000E+000	-9.95500E-002	1.16522E-003	7	...........	-327.66
	188	0.0378	-8.94627E-002	2.26807E-005	0.00000E+000	-8.95500E-002	1.06522E-003	7	...........	-327.66
	189	0.038	-7.95752E-002	2.29523E-005	0.00000E+000	-7.95500E-002	1.09022E-003	7	...........	-327.66
	190	0.0382	-6.94877E-002	2.32188E-005	0.00000E+000	-6.95500E-002	1.16522E-003	7	...........	-327.66
	191	0.0384	-5.95252E-002	2.34736E-005	0.00000E+000	-5.95500E-002	9.40224E-004	7	...........	-327.66
	192	0.0386	-4.96377E-002	2.37259E-005	0.00000E+000	-4.95500E-002	1.14022E-003	7	...........	-327.66
	193	0.0388	-3.94627E-002	2.39692E-005	0.00000E+000	-3.95500E-002	1.24022E-003	7	...........	-327.66
	194	0.039	-2.95877E-002	2.42032E-005	0.00000E+000	-2.95500E-002	1.11522E-003	7	...........	-327.66
	195	0.0392	-1.96127E-002	2.44280E-005	0.00000E+000	-1.95500E-002	1.14022E-003	7	...........	-327.66
	196	0.0394	-9.66269E-003	2.46555E-005	0.00000E+000	-9.55001E-003	1.14022E-003	7	...........	-327.66
	197	0.0396	5.37312E-004	2.48640E-005	0.00000E+000	4.49985E-004	1.09022E-003	7	...........	-327.66
	198	0.0398	1.04498E-002	2.50728E-005	0.00000E+000	1.04500E-002	1.16522E-003	7	...........	-327.66
	199	0.04	2.03748E-002	2.52726E-005	0.00000E+000	2.04500E-002	9.65224E-004	7	...........	-327.66
	200	0.0402	3.03873E-002	2.54599E-005	0.00000E+000	3.04500E-002	1.16522E-003	7	...........	-327.66
	201	0.0404	4.06248E-002	2.56531E-005	0.00000E+000	4.04500E-002	1.04022E-003	7	...........	-327.66
	202	0.0406	5.04123E-002	2.58319E-005	0.00000E+000	5.04500E-002	1.06522E-003	7	...........	-327.66
	203	0.0408	6.04248E-002	2.60022E-005	0.00000E+000	6.04500E-002	1.01522E-003	7	...........	-327.66
	204	0.041	7.03748E-002	2.61692E-005	0.00000E+000	7.04500E-002	1.11522E-003	7	...........	-327.66
	205	0.0412	8.03873E-002	2.63260E-005	0.00000E+000	8.04500E-002	1.14022E-003	7	...........	-327.66
	206	0.0414	9.04123E-002	2.64778E-005	0.00000E+000	9.04500E-002	1.06522E-003	7	...........	-327.66
	207	0.0416	1.00375E-001	2.66243E-005	0.00000E+000	1.00450E-001	1.14022E-003	7	...........	-327.66
	208	0.0418	1.10362E-001	2.67595E-005	0.00000E+000	1.10450E-001	1.19022E-003	7	...........	-327.66
	209	0.042	1.20537E-001	2.68911E-005	0.00000E+000	1.20450E-001	1.06522E-003	7	...........	-327.66
	210	0.0422	1.30412E-001	2.70136E-005	0.00000E+000	1.30450E-001	1.11522E-003	7	...........	-327.66
	211	0.0424	1.40500E-001	2.71309E-005	0.00000E+000	1.40450E-001	1.16522E-003	7	...........	-327.66
	212	0.0426	1.50387E-001	2.72411E-005	0.00000E+000	1.50450E-001	1.21522E-003	7	...........	-327.66
	213	0.0428	1.60425E-001	2.73399E-005	0.00000E+000	1.60450E-001	1.14022E-003	7	...........	-327.66
	214	0.043	1.70387E-001	2.74334E-005	0.00000E+000	1.70450E-001	1.14022E-003	7	...........	-327.66
	215	0.0432	1.80400E-001	2.75242E-005	0.00000E+000	1.80450E-001	1.11522E-003	7	...........	-327.66
	216	0.0434	1.90450E-001	2.76047E-005	0.00000E+000	1.90450E-001	1.21522E-003	7	...........	-327.66
	217	0.0436	2.00537E-001	2.76802E-005	0.00000E+000	2.00450E-001	1.04022E-003	7	...........	-327.66
	218	0.0438	2.10362E-001	2.77464E-005	0.00000E+000	2.10450E-001	1.29022E-003	7	...........	-327.66
	219	0.044	2.20487E-001	2.78067E-005	0.00000E+000	2.20450E-001	1.06522E-003	7	...........	-327.66
	220	0.0442	2.30362E-001	2.78590E-005	0.00000E+000	2.30450E-001	1.11522E-003	7	...........	-327.66
	221	0.0444	2.40462E-001	2.79032E-005	0.00000E+000	2.40450E-001	1.16522E-003	7	...........	-327.66
	222	0.0446	2.50437E-001	2.79375E-005	0.00000E+000	2.50450E-001	1.21522E-003	7	...........	-327.66
	223	0.0448	2.60312E-001	2.79632E-005	0.00000E+000	2.60450E-001	1.29022E-003	7	...........	-327.66
	224	0.045	2.70362E-001	2.79822E-005	0.00000E+000	2.70450E-001	1.14022E-003	7	...........	-327.66
	225	0.0452	2.80437E-001	2.79932E-005	0.00000E+000	2.80450E-001	1.09022E-003	7	...........	-327.66
	226	0.0454	2.90462E-001	2.80020E-005	0.00000E+000	2.90450E-001	1.21522E-003	7	...........	-327.66
	227	0.0456	3.00412E-001	2.79997E-005	0.00000E+000	3.00450E-001	1.19022E-003	7	...........	-327.66
	228	0.0458	3.10312E-001	2.79947E-005	0.00000E+000	3.10450E-001	1.16522E-003	7	...........	-327.66
	229	0.046	3.20437E-001	2.79875E-005	0.00000E+000	3.20450E-001	1.06522E-003	7	...........	-327.66
	230	0.0462	3.30387E-001	2.79737E-005	0.00000E+000	3.30450E-001	1.16522E-003	7	...........	-327.66
	231	0.0464	3.40350E-001	2.79617E-005	0.00000E+000	3.40450E-001	1.06522E-003	7	...........	-327.66
	232	0.0466	3.50462E-001	2.79405E-005	0.00000E+000	3.50450E-001	1.09022E-003	7	...........	-327.66
	233	0.0468	3.60412E-001	2.79200E-005	0.00000E+000	3.60450E-001	1.06522E-003	7	...........	-327.66
	234	0.047	3.70425E-001	2.78942E-005	0.00000E+000	3.70450E-001	1.11522E-003	7	...........	-327.66
	235	0.0472	3.80362E-001	2.78712E-005	0.00000E+000	3.80450E-001	1.11522E-003	7	...........	-327.66
	236	0.0474	3.90425E-001	2.78419E-005	0.00000E+000	3.90450E-001	1.11522E-003	7	...........	-327.66
	237	0.0476	4.00487E-001	2.78167E-005	0.00000E+000	4.00450E-001	9.90224E-004	7	...........	-327.66
	238	0.0478	4.10350E-001	2.77872E-005	0.00000E+000	4.10450E-001	1.01522E-003	7	...........	-327.66
	239	0.048	4.20325E-001	2.77617E-005	0.00000E+000	4.20450E-001	9.90224E-004	7	...........	-327.66
	240	0.0482	4.30412E-001	2.77312E-005	0.00000E+000	4.30450E-001	1.19022E-003	7	...........	-327.66
	241	0.0484	4.40337E-001	2.77057E-005	0.00000E+000	4.40450E-001	1.09022E-003	7	...........	-327.66
	242	0.0486	4.50437E-001	2.76774E-005	0.00000E+000	4.50450E-001	9.90224E-004	7	...........	-327.66
	243	0.0488	4.60437E-001	2.76494E-005	0.00000E+000	4.60450E-001	1.21522E-003	7	...........	-327.66
	244	0.049	4.70375E-001	2.76239E-005	0.00000E+000	4.70450E-001	1.14022E-003	7	...........	-327.66
	245	0.0492	4.80400E-001	2.76012E-005	0.00000E+000	4.80450E-001	1.11522E-003	7	...........	-327.66
	246	0.0494	4.90337E-001	2.75777E-005	0.00000E+000	4.90450E-001	1.06522E-003	7	...........	-327.66
	247	0.0496	5.00475E-001	2.75564E-005	0.00000E+000	5.00450E-001	1.24022E-003	7	...........	-327.66
	248	0.0498	5.10387E-001	2.75384E-005	0.00000E+000	5.10450E-001	1.19022E-003	7	...........	-327.66
	249	0.05	5.20350E-001	2.75177E-005	0.00000E+000	5.20450E-001	1.19022E-003	7	...........	-327.66
	250	0.0502	5.30337E-001	2.75052E-005	0.00000E+000	5.30450E-001	1.24022E-003	7	...........	-327.66
	251	0.0504	5.40300E-001	2.74937E-005	0.00000E+000	5.40450E-001	1.11522E-003	7	...........	-327.66
	252	0.0506	5.50387E-001	2.74854E-005	0.00000E+000	5.50450E-001	1.06522E-003	7	...........	-327.66
	253	0.0508	5.60500E-001	2.74766E-005	0.00000E+000	5.60450E-001	1.09022E-003	7	...........	-327.66
	254	0.051	5.70337E-001	2.74699E-005	0.00000E+000	5.70450E-001	9.40224E-004	7	...........	-327.66
	255	0.0512	5.80412E-001	2.74714E-005	0.00000E+000	5.80450E-001	1.19022E-003	7	...........	-327.66
	256	0.0514	5.90362E-001	2.74756E-005	0.00000E+000	5.90450E-001	1.14022E-003	7	...........	-327.66
	257	0.0516	6.00375E-001	2.74839E-005	0.00000E+000	6.00450E-001	1.04022E-003	7	...........	-327.66
CURVE2	TABLE
	Pt	T	Vf	Im	Vu	Sig	Ach	IERange	Over	Temp
	#	s	V vs. Ref.	A	V	V	V	#	bits	deg C
	258	0.0518	5.90137E-001	2.49851E-005	0.00000E+000	5.90000E-001	1.04022E-003	7	...........	-327.66
	259	0.052	5.79962E-001	2.27508E-005	0.00000E+000	5.80000E-001	1.04022E-003	7	...........	-327.66
	260	0.0522	5.69937E-001	2.09333E-005	0.00000E+000	5.70000E-001	1.21522E-003	7	...........	-327.66
	261	0.0524	5.59950E-001	1.93728E-005	0.00000E+000	5.60000E-001	1.01522E-003	7	...........	-327.66
	262	0.0526	5.50000E-001	1.79994E-005	0.00000E+000	5.50000E-001	1.09022E-003	7	...........	-327.66
	263	0.0528	5.39937E-001	1.67552E-005	0.00000E+000	5.40000E-001	1.21522E-003	7	...........	-327.66
	264	0.053	5.30012E-001	1.56135E-005	0.00000E+000	5.30000E-001	1.04022E-003	7	...........	-327.66
	265	0.0532	5.19962E-001	1.45589E-005	0.00000E+000	5.20000E-001	1.09022E-003	7	...........	-327.66
	266	0.0534	5.09987E-001	1.35745E-005	0.00000E+000	5.10000E-001	9.65224E-004	7	...........	-327.66
	267	0.0536	5.00075E-001	1.26444E-005	0.00000E+000	5.00000E-001	1.06522E-003	7	...........	-327.66
	268	0.0538	4.89912E-001	1.17623E-005	0.00000E+000	4.90000E-001	1.09022E-003	7	...........	-327.66
	269	0.054	4.79912E-001	1.09254E-005	0.00000E+000	4.80000E-001	1.04022E-003	7	...........	-327.66
	270	0.0542	4.69962E-001	1.01315E-005	0.00000E+000	4.70000E-001	1.16522E-003	7	...........	-327.66
	271	0.0544	4.59937E-001	9.36668E-006	0.00000E+000	4.60000E-001	1.29022E-003	7	...........	-327.66
	272	0.0546	4.50150E-001	8.62558E-006	0.00000E+000	4.50000E-001	1.19022E-003	7	...........	-327.66
	273	0.0548	4.39937E-001	7.91648E-006	0.00000E+000	4.40000E-001	1.16522E-003	7	...........	-327.66
	274	0.055	4.29987E-001	7.23064E-006	0.00000E+000	4.30000E-001	1.06522E-003	7	...........	-327.66
	275	0.0552	4.20062E-001	6.57255E-006	0.00000E+000	4.20000E-001	1.11522E-003	7	...........	-327.66
	276	0.0554	4.09987E-001	5.93046E-006	0.00000E+000	4.10000E-001	1.09022E-003	7	...........	-327.66
	277	0.0556	3.99987E-001	5.30513E-006	0.00000E+000	4.00000E-001	1.19022E-003	7	...........	-327.66
	278	0.0558	3.89987E-001	4.69979E-006	0.00000E+000	3.90000E-001	1.04022E-003	7	...........	-327.66
	279	0.056	3.79937E-001	4.10821E-006	0.00000E+000	3.80000E-001	1.19022E-003	7	...........	-327.66
	280	0.0562	3.70000E-001	3.53264E-006	0.00000E+000	3.70000E-001	1.16522E-003	7	...........	-327.66
	281	0.0564	3.60012E-001	2.97156E-006	0.00000E+000	3.60000E-001	1.11522E-003	7	...........	-327.66
	282	0.0566	3.50087E-001	2.42448E-006	0.00000E+000	3.50000E-001	1.24022E-003	7	...........	-327.66
	283	0.0568	3.40025E-001	1.88641E-006	0.00000E+000	3.40000E-001	1.09022E-003	7	...........	-327.66
	284	0.057	3.30012E-001	1.36209E-006	0.00000E+000	3.30000E-001	1.19022E-003	7	...........	-327.66
	285	0.0572	3.20087E-001	8.48520E-007	0.00000E+000	3.20000E-001	1.09022E-003	7	...........	-327.66
	286	0.0574	3.10112E-001	3.45951E-007	0.00000E+000	3.10000E-001	1.06522E-003	7	...........	-327.66
	287	0.0576	2.99987E-001	-1.51367E-007	0.00000E+000	3.00000E-001	1.11522E-003	7	...........	-327.66
	288	0.0578	2.90087E-001	-6.37433E-007	0.00000E+000	2.90000E-001	1.04022E-003	7	...........	-327.66
	289	0.058	2.79962E-001	-1.11050E-006	0.00000E+000	2.80000E-001	1.04022E-003	7	...........	-327.66
	290	0.0582	2.70112E-001	-1.57906E-006	0.00000E+000	2.70000E-001	1.11522E-003	7	...........	-327.66
	291	0.0584	2.59962E-001	-2.03962E-006	0.00000E+000	2.60000E-001	1.06522E-003	7	...........	-327.66
	292	0.0586	2.50075E-001	-2.48919E-006	0.00000E+000	2.50000E-001	1.06522E-003	7	...........	-327.66
	293	0.0588	2.40087E-001	-2.93425E-006	0.00000E+000	2.40000E-001	1.11522E-003	7	...........	-327.66
	294	0.059	2.30075E-001	-3.36906E-006	0.00000E+000	2.30000E-001	1.19022E-003	7	...........	-327.66
	295	0.0592	2.20000E-001	-3.80786E-006	0.00000E+000	2.20000E-001	1.06522E-003	7	...........	-327.66
	296	0.0594	2.10100E-001	-4.23417E-006	0.00000E+000	2.10000E-001	1.11522E-003	7	...........	-327.66
	297	0.0596	2.00125E-001	-4.65523E-006	0.00000E+000	2.00000E-001	8.65224E-004	7	...........	-327.66
	298	0.0598	1.90200E-001	-5.07254E-006	0.00000E+000	1.90000E-001	1.19022E-003	7	...........	-327.66
	299	0.06	1.80100E-001	-5.48009E-006	0.00000E+000	1.80000E-001	1.19022E-003	7	...........	-327.66
	300	0.0602	1.70225E-001	-5.88740E-006	0.00000E+000	1.70000E-001	1.09022E-003	7	...........	-327.66
	301	0.0604	1.60137E-001	-6.28720E-006	0.00000E+000	1.60000E-001	9.65224E-004	7	...........	-327.66
	302	0.0606	1.50162E-001	-6.67976E-006	0.00000E+000	1.50000E-001	1.11522E-003	7	...........	-327.66
	303	0.0608	1.40112E-001	-7.07356E-006	0.00000E+000	1.40000E-001	1.06522E-003	7	...........	-327.66
	304	0.061	1.30125E-001	-7.46011E-006	0.00000E+000	1.30000E-001	1.16522E-003	7	...........	-327.66
	305	0.0612	1.20137E-001	-7.84241E-006	0.00000E+000	1.20000E-001	9.90224E-004	7	...........	-327.66
	306	0.0614	1.10050E-001	-8.22597E-006	0.00000E+000	1.10000E-001	1.16522E-003	7	...........	-327.66
	307	0.0616	1.00100E-001	-8.59777E-006	0.00000E+000	1.00000E-001	1.04022E-003	7	...........	-327.66
	308	0.0618	9.02498E-002	-8.97382E-006	0.00000E+000	9.00000E-002	1.14022E-003	7	...........	-327.66
	309	0.062	8.00748E-002	-9.33987E-006	0.00000E+000	8.00000E-002	1.04022E-003	7	...........	-327.66
	310	0.0622	7.01498E-002	-9.70592E-006	0.00000E+000	7.00000E-002	1.09022E-003	7	...........	-327.66
	311	0.0624	6.01498E-002	-1.00675E-005	0.00000E+000	6.00000E-002	1.04022E-003	7	...........	-327.66
	312	0.0626	5.01748E-002	-1.04265E-005	0.00000E+000	5.00000E-002	1.11522E-003	7	...........	-327.66
	313	0.0628	4.01748E-002	-1.07833E-005	0.00000E+000	4.00000E-002	1.14022E-003	7	...........	-327.66
	314	0.063	3.01623E-002	-1.11386E-005	0.00000E+000	3.00000E-002	1.11522E-003	7	...........	-327.66
	315	0.0632	2.00873E-002	-1.14864E-005	0.00000E+000	2.00000E-002	1.09022E-003	7	...........	-327.66
	316	0.0634	1.01498E-002	-1.18352E-005	0.00000E+000	9.99999E-003	1.09022E-003	7	...........	-327.66
	317	0.0636	8.73125E-005	-1.21808E-005	0.00000E+000	-1.49012E-008	1.16522E-003	7	...........	-327.66
	318	0.0638	-9.70019E-003	-1.25243E-005	0.00000E+000	-1.00000E-002	1.09022E-003	7	...........	-327.66
	319	0.064	-1.99252E-002	-1.28623E-005	0.00000E+000	-2.00000E-002	9.40224E-004	7	...........	-327.66
	320	0.0642	-2.97877E-002	-1.32014E-005	0.00000E+000	-3.00000E-002	1.09022E-003	7	...........	-327.66
	321	0.0644	-3.98752E-002	-1.35332E-005	0.00000E+000	-4.00000E-002	1.01522E-003	7	...........	-327.66
	322	0.0646	-4.98252E-002	-1.38625E-005	0.00000E+000	-5.00000E-002	1.21522E-003	7	...........	-327.66
	323	0.0648	-6.00002E-002	-1.41915E-005	0.00000E+000	-6.00000E-002	1.14022E-003	7	...........	-327.66
	324	0.065	-6.97502E-002	-1.45148E-005	0.00000E+000	-7.00000E-002	1.09022E-003	7	...........	-327.66
	325	0.0652	-7.98877E-002	-1.48414E-005	0.00000E+000	-8.00000E-002	1.06522E-003	7	...........	-327.66
	326	0.0654	-8.98752E-002	-1.51642E-005	0.00000E+000	-9.00000E-002	1.09022E-003	7	...........	-327.66
	327	0.0656	-9.99252E-002	-1.54837E-005	0.00000E+000	-1.00000E-001	1.04022E-003	7	...........	-327.66
	328	0.0658	-1.09838E-001	-1.58073E-005	0.00000E+000	-1.10000E-001	1.11522E-003	7	...........	-327.66
	329	0.066	-1.19875E-001	-1.61193E-005	0.00000E+000	-1.20000E-001	1.11522E-003	7	...........	-327.66
	330	0.0662	-1.29838E-001	-1.64403E-005	0.00000E+000	-1.30000E-001	1.04022E-003	7	...........	-327.66
	331	0.0664	-1.39800E-001	-1.67566E-005	0.00000E+000	-1.40000E-001	9.15224E-004	7	...........	-327.66
	332	0.0666	-1.49838E-001	-1.70682E-005	0.00000E+000	-1.50000E-001	1.06522E-003	7	...........	-327.66
	333	0.0668	-1.59825E-001	-1.73787E-005	0.00000E+000	-1.60000E-001	1.09022E-003	7	...........	-327.66
	334	0.067	-1.69850E-001	-1.76910E-005	0.00000E+000	-1.70000E-001	1.24022E-003	7	...........	-327.66
	335	0.0672	-1.79913E-001	-1.80023E-005	0.00000E+000	-1.80000E-001	1.21522E-003	7	...........	-327.66
	336	0.0674	-1.89738E-001	-1.83116E-005	0.00000E+000	-1.90000E-001	1.21522E-003	7	...........	-327.66
	337	0.0676	-1.99900E-001	-1.86236E-005	0.00000E+000	-2.00000E-001	1.19022E-003	7	...........	-327.66
	338	0.0678	-2.09700E-001	-1.89309E-005	0.00000E+000	-2.10000E-001	1.11522E-003	7	...........	-327.66
	339	0.068	-2.19800E-001	-1.92372E-005	0.00000E+000	-2.20000E-001	1.09022E-003	7	...........	-327.66
	340	0.0682	-2.29700E-001	-1.95465E-005	0.00000E+000	-2.30000E-001	1.11522E-003	7	...........	-327.66
	341	0.0684	-2.39813E-001	-1.98566E-005	0.00000E+000	-2.40000E-001	1.14022E-003	7	...........	-327.66
	342	0.0686	-2.49750E-001	-2.01638E-005	0.00000E+000	-2.50000E-001	1.14022E-003	7	...........	-327.66
	343	0.0688	-2.59738E-001	-2.04721E-005	0.00000E+000	-2.60000E-001	9.90224E-004	7	...........	-327.66
	344	0.069	-2.69650E-001	-2.07812E-005	0.00000E+000	-2.70000E-001	1.11522E-003	7	...........	-327.66
	345	0.0692	-2.79775E-001	-2.10895E-005	0.00000E+000	-2.80000E-001	1.09022E-003	7	...........	-327.66
	346	0.0694	-2.89813E-001	-2.13953E-005	0.00000E+000	-2.90000E-001	1.16522E-003	7	...........	-327.66
	347	0.0696	-2.99738E-001	-2.16991E-005	0.00000E+000	-3.00000E-001	1.06522E-003	7	...........	-327.66
	348	0.0698	-3.09650E-001	-2.20028E-005	0.00000E+000	-3.10000E-001	1.06522E-003	7	...........	-327.66
	349	0.07	-3.19888E-001	-2.23106E-005	0.00000E+000	-3.20000E-001	1.16522E-003	7	...........	-327.66
	350	0.0702	-3.29788E-001	-2.26149E-005	0.00000E+000	-3.30000E-001	1.16522E-003	7	...........	-327.66
	351	0.0704	-3.39913E-001	-2.29217E-005	0.00000E+000	-3.40000E-001	1.19022E-003	7	...........	-327.66
	352	0.0706	-3.49738E-001	-2.32230E-005	0.00000E+000	-3.50000E-001	9.90224E-004	7	...........	-327.66
	353	0.0708	-3.59775E-001	-2.35223E-005	0.00000E+000	-3.60000E-001	1.24022E-003	7	...........	-327.66
	354	0.071	-3.69763E-001	-2.38251E-005	0.00000E+000	-3.70000E-001	1.19022E-003	7	...........	-327.66
	355	0.0712	-3.79838E-001	-2.41294E-005	0.00000E+000	-3.80000E-001	1.16522E-003	7	...........	-327.66
	356	0.0714	-3.89875E-001	-2.44254E-005	0.00000E+000	-3.90000E-001	1.21522E-003	7	...........	-327.66
	357	0.0716	-3.99813E-001	-2.47290E-005	0.00000E+000	-4.00000E-001	1.09022E-003	7	...........	-327.66
	358	0.0718	-4.09750E-001	-2.50278E-005	0.00000E+000	-4.10000E-001	1.19022E-003	7	...........	-327.66
	359	0.072	-4.19863E-001	-2.53225E-005	0.00000E+000	-4.20000E-001	1.14022E-003	7	...........	-327.66
	360	0.0722	-4.29725E-001	-2.56198E-005	0.00000E+000	-4.30000E-001	1.04022E-003	7	...........	-327.66
	361	0.0724	-4.39763E-001	-2.59139E-005	0.00000E+000	-4.40000E-001	1.21522E-003	7	...........	-327.66
	362	0.0726	-4.49700E-001	-2.62057E-005	0.00000E+000	-4.50000E-001	1.04022E-003	7	...........	-327.66
	363	0.0728	-4.59725E-001	-2.64995E-005	0.00000E+000	-4.60000E-001	1.09022E-003	7	...........	-327.66
	364	0.073	-4.69650E-001	-2.67900E-005	0.00000E+000	-4.70000E-001	1.16522E-003	7	...........	-327.66
	365	0.0732	-4.79763E-001	-2.70753E-005	0.00000E+000	-4.80000E-001	1.19022E-003	7	...........	-327.66
	366	0.0734	-4.89713E-001	-2.73656E-005	0.00000E+000	-4.90000E-001	1.04022E-003	7	...........	-327.66
	367	0.0736	-4.99700E-001	-2.76509E-005	0.00000E+000	-5.00000E-001	1.16522E-003	7	...........	-327.66
	368	0.0738	-5.09650E-001	-2.79304E-005	0.00000E+000	-5.10000E-001	1.14022E-003	7	...........	-327.66
	369	0.074	-5.19725E-001	-2.82149E-005	0.00000E+000	-5.20000E-001	1.01522E-003	7	...........	-327.66
	370	0.0742	-5.29725E-001	-2.84900E-005	0.00000E+000	-5.30000E-001	1.21522E-003	7	...........	-327.66
	371	0.0744	-5.39763E-001	-2.87733E-005	0.00000E+000	-5.40000E-001	1.24022E-003	7	...........	-327.66
	372	0.0746	-5.49650E-001	-2.90433E-005	0.00000E+000	-5.50000E-001	1.09022E-003	7	...........	-327.66
[...]
	702	0.1406	-8.49688E-001	-3.55362E-005	0.00000E+000	-8.50000E-001	1.24022E-003	7	...........	-327.66
	703	0.1408	-8.59675E-001	-3.56007E-005	0.00000E+000	-8.60000E-001	1.11522E-003	7	...........	-327.66
	704	0.141	-8.69725E-001	-3.56470E-005	0.00000E+000	-8.70000E-001	1.09022E-003	7	...........	-327.66
	705	0.1412	-8.79663E-001	-3.56780E-005	0.00000E+000	-8.80000E-001	1.09022E-003	7	...........	-327.66
	706	0.1414	-8.89663E-001	-3.56942E-005	0.00000E+000	-8.90000E-001	1.11522E-003	7	...........	-327.66
	707	0.1416	-8.99650E-001	-3.56932E-005	0.00000E+000	-9.00000E-001	1.21522E-003	7	...........	-327.66
	708	0.1418	-8.89663E-001	-3.34809E-005	0.00000E+000	-8.90000E-001	1.14022E-003	7	...........	-327.66
	709	0.142	-8.79738E-001	-3.12939E-005	0.00000E+000	-8.80000E-001	1.21522E-003	7	...........	-327.66
	710	0.1422	-8.69675E-001	-2.93986E-005	0.00000E+000	-8.70000E-001	1.21522E-003	7	...........	-327.66
	711	0.1424	-8.59800E-001	-2.76929E-005	0.00000E+000	-8.60000E-001	1.14022E-003	7	...........	-327.66
	712	0.1426	-8.49688E-001	-2.61292E-005	0.00000E+000	-8.50000E-001	1.24022E-003	7	...........	-327.66
	713	0.1428	-8.39763E-001	-2.46682E-005	0.00000E+000	-8.40000E-001	1.09022E-003	7	...........	-327.66
	714	0.143	-8.29638E-001	-2.32900E-005	0.00000E+000	-8.30000E-001	1.21522E-003	7	...........	-327.66
	715	0.1432	-8.19800E-001	-2.19753E-005	0.00000E+000	-8.20000E-001	1.29022E-003	7	...........	-327.66
	716	0.1434	-8.09688E-001	-2.07149E-005	0.00000E+000	-8.10000E-001	1.14022E-003	7	...........	-327.66
	717	0.1436	-7.99663E-001	-1.94978E-005	0.00000E+000	-8.00000E-001	9.90224E-004	7	...........	-327.66
	718	0.1438	-7.89663E-001	-1.83236E-005	0.00000E+000	-7.90000E-001	1.11522E-003	7	...........	-327.66
	719	0.144	-7.79688E-001	-1.71842E-005	0.00000E+000	-7.80000E-001	1.04022E-003	7	...........	-327.66
	720	0.1442	-7.69763E-001	-1.60773E-005	0.00000E+000	-7.70000E-001	1.09022E-003	7	...........	-327.66
	721	0.1444	-7.59750E-001	-1.50059E-005	0.00000E+000	-7.60000E-001	1.19022E-003	7	...........	-327.66
	722	0.1446	-7.49688E-001	-1.39570E-005	0.00000E+000	-7.50000E-001	1.04022E-003	7	...........	-327.66
	723	0.1448	-7.39813E-001	-1.29309E-005	0.00000E+000	-7.40000E-001	1.11522E-003	7	...........	-327.66
	724	0.145	-7.29763E-001	-1.19317E-005	0.00000E+000	-7.30000E-001	1.01522E-003	7	...........	-327.66
	725	0.1452	-7.19825E-001	-1.09573E-005	0.00000E+000	-7.20000E-001	9.90224E-004	7	...........	-327.66
	726	0.1454	-7.09763E-001	-1.00065E-005	0.00000E+000	-7.10000E-001	1.19022E-003	7	...........	-327.66
	727	0.1456	-6.99875E-001	-9.07758E-006	0.00000E+000	-7.00000E-001	9.15224E-004	7	...........	-327.66
	728	0.1458	-6.89888E-001	-8.16496E-006	0.00000E+000	-6.90000E-001	1.19022E-003	7	...........	-327.66
	729	0.146	-6.79750E-001	-7.28084E-006	0.00000E+000	-6.80000E-001	1.04022E-003	7	...........	-327.66
	730	0.1462	-6.69750E-001	-6.41022E-006	0.00000E+000	-6.70000E-001	1.06522E-003	7	...........	-327.66
	731	0.1464	-6.59875E-001	-5.56260E-006	0.00000E+000	-6.60000E-001	1.11522E-003	7	...........	-327.66
	732	0.1466	-6.49763E-001	-4.73124E-006	0.00000E+000	-6.50000E-001	1.11522E-003	7	...........	-327.66
	733	0.1468	-6.39825E-001	-3.91313E-006	0.00000E+000	-6.40000E-001	1.16522E-003	7	...........	-327.66
	734	0.147	-6.29638E-001	-3.12102E-006	0.00000E+000	-6.30000E-001	1.04022E-003	7	...........	-327.66
	735	0.1472	-6.19813E-001	-2.34342E-006	0.00000E+000	-6.20000E-001	9.65224E-004	7	...........	-327.66
	736	0.1474	-6.09863E-001	-1.57681E-006	0.00000E+000	-6.10000E-001	1.09022E-003	7	...........	-327.66
	737	0.1476	-5.99750E-001	-8.30459E-007	0.00000E+000	-6.00000E-001	1.19022E-003	7	...........	-327.66
	738	0.1478	-5.89738E-001	-9.61092E-008	0.00000E+000	-5.90000E-001	1.19022E-003	7	...........	-327.66
	739	0.148	-5.79825E-001	6.27489E-007	0.00000E+000	-5.80000E-001	1.21522E-003	7	...........	-327.66
	740	0.1482	-5.69888E-001	1.33509E-006	0.00000E+000	-5.70000E-001	1.14022E-003	7	...........	-327.66
	741	0.1484	-5.59988E-001	2.02693E-006	0.00000E+000	-5.60000E-001	1.06522E-003	7	...........	-327.66
	742	0.1486	-5.49913E-001	2.71302E-006	0.00000E+000	-5.50000E-001	1.09022E-003	7	...........	-327.66
	743	0.1488	-5.39875E-001	3.38912E-006	0.00000E+000	-5.40000E-001	1.11522E-003	7	...........	-327.66
	744	0.149	-5.29875E-001	4.05221E-006	0.00000E+000	-5.30000E-001	1.29022E-003	7	...........	-327.66
	745	0.1492	-5.19988E-001	4.70905E-006	0.00000E+000	-5.20000E-001	1.24022E-003	7	...........	-327.66
	746	0.1494	-5.09875E-001	5.35638E-006	0.00000E+000	-5.10000E-001	1.06522E-003	7	...........	-327.66
	747	0.1496	-4.99875E-001	5.99447E-006	0.00000E+000	-5.00000E-001	1.11522E-003	7	...........	-327.66
	748	0.1498	-4.89988E-001	6.62481E-006	0.00000E+000	-4.90000E-001	1.14022E-003	7	...........	-327.66
	749	0.15	-4.79913E-001	7.24539E-006	0.00000E+000	-4.80000E-001	1.06522E-003	7	...........	-327.66
	750	0.1502	-4.69888E-001	7.86348E-006	0.00000E+000	-4.70000E-001	1.11522E-003	7	...........	-327.66
	751	0.1504	-4.60038E-001	8.47556E-006	0.00000E+000	-4.60000E-001	1.11522E-003	7	...........	-327.66
	752	0.1506	-4.49875E-001	9.07964E-006	0.00000E+000	-4.50000E-001	1.16522E-003	7	...........	-327.66
	753	0.1508	-4.39938E-001	9.67772E-006	0.00000E+000	-4.40000E-001	1.16522E-003	7	...........	-327.66
	754	0.151	-4.29925E-001	1.02673E-005	0.00000E+000	-4.30000E-001	1.11522E-003	7	...........	-327.66
	755	0.1512	-4.19975E-001	1.08524E-005	0.00000E+000	-4.20000E-001	1.06522E-003	7	...........	-327.66
	756	0.1514	-4.10000E-001	1.14312E-005	0.00000E+000	-4.10000E-001	1.06522E-003	7	...........	-327.66
	757	0.1516	-3.99988E-001	1.20000E-005	0.00000E+000	-4.00000E-001	1.09022E-003	7	...........	-327.66
	758	0.1518	-3.89888E-001	1.25711E-005	0.00000E+000	-3.90000E-001	9.90224E-004	7	...........	-327.66
	759	0.152	-3.80050E-001	1.31242E-005	0.00000E+000	-3.80000E-001	1.24022E-003	7	...........	-327.66
	760	0.1522	-3.69800E-001	1.36765E-005	0.00000E+000	-3.70000E-001	1.09022E-003	7	...........	-327.66
	761	0.1524	-3.60013E-001	1.42188E-005	0.00000E+000	-3.60000E-001	1.14022E-003	7	...........	-327.66
	762	0.1526	-3.49950E-001	1.47534E-005	0.00000E+000	-3.50000E-001	1.04022E-003	7	...........	-327.66
	763	0.1528	-3.40063E-001	1.52792E-005	0.00000E+000	-3.40000E-001	1.16522E-003	7	...........	-327.66
	764	0.153	-3.29925E-001	1.57983E-005	0.00000E+000	-3.30000E-001	1.09022E-003	7	...........	-327.66
	765	0.1532	-3.20063E-001	1.63044E-005	0.00000E+000	-3.20000E-001	1.04022E-003	7	...........	-327.66
	766	0.1534	-3.09988E-001	1.68092E-005	0.00000E+000	-3.10000E-001	1.14022E-003	7	...........	-327.66
	767	0.1536	-2.99950E-001	1.72973E-005	0.00000E+000	-3.00000E-001	1.11522E-003	7	...........	-327.66
	768	0.1538	-2.90013E-001	1.77796E-005	0.00000E+000	-2.90000E-001	1.04022E-003	7	...........	-327.66
	769	0.154	-2.80063E-001	1.82539E-005	0.00000E+000	-2.80000E-001	1.09022E-003	7	...........	-327.66
	770	0.1542	-2.70013E-001	1.87142E-005	0.00000E+000	-2.70000E-001	1.19022E-003	7	...........	-327.66
	771	0.1544	-2.60013E-001	1.91658E-005	0.00000E+000	-2.60000E-001	1.24022E-003	7	...........	-327.66
	772	0.1546	-2.50000E-001	1.96028E-005	0.00000E+000	-2.50000E-001	1.06522E-003	7	...........	-327.66
	773	0.1548	-2.40025E-001	2.00324E-005	0.00000E+000	-2.40000E-001	1.16522E-003	7	...........	-327.66
	774	0.155	-2.29900E-001	2.04534E-005	0.00000E+000	-2.30000E-001	1.14022E-003	7	...........	-327.66
	775	0.1552	-2.19913E-001	2.08592E-005	0.00000E+000	-2.20000E-001	1.04022E-003	7	...........	-327.66
	776	0.1554	-2.10013E-001	2.12523E-005	0.00000E+000	-2.10000E-001	1.14022E-003	7	...........	-327.66
	777	0.1556	-2.00038E-001	2.16379E-005	0.00000E+000	-2.00000E-001	1.06522E-003	7	...........	-327.66
	778	0.1558	-1.89900E-001	2.20152E-005	0.00000E+000	-1.90000E-001	1.16522E-003	7	...........	-327.66
	779	0.156	-1.80025E-001	2.23752E-005	0.00000E+000	-1.80000E-001	1.21522E-003	7	...........	-327.66
	780	0.1562	-1.70013E-001	2.27275E-005	0.00000E+000	-1.70000E-001	1.14022E-003	7	...........	-327.66
	781	0.1564	-1.60050E-001	2.30668E-005	0.00000E+000	-1.60000E-001	1.09022E-003	7	...........	-327.66
	782	0.1566	-1.50088E-001	2.33988E-005	0.00000E+000	-1.50000E-001	1.09022E-003	7	...........	-327.66
	783	0.1568	-1.39888E-001	2.37151E-005	0.00000E+000	-1.40000E-001	1.04022E-003	7	...........	-327.66
	784	0.157	-1.30013E-001	2.40282E-005	0.00000E+000	-1.30000E-001	1.21522E-003	7	...........	-327.66
	785	0.1572	-1.20038E-001	2.43275E-005	0.00000E+000	-1.20000E-001	1.19022E-003	7	...........	-327.66
	786	0.1574	-1.10088E-001	2.46215E-005	0.00000E+000	-1.10000E-001	1.14022E-003	7	...........	-327.66
	787	0.1576	-1.00050E-001	2.49020E-005	0.00000E+000	-1.00000E-001	1.06522E-003	7	...........	-327.66
	788	0.1578	-9.00877E-002	2.51706E-005	0.00000E+000	-9.00000E-002	9.40224E-004	7	...........	-327.66
	789	0.158	-8.00627E-002	2.54374E-005	0.00000E+000	-8.00000E-002	1.14022E-003	7	...........	-327.66
	790	0.1582	-7.01002E-002	2.56932E-005	0.00000E+000	-7.00000E-002	1.09022E-003	7	...........	-327.66
	791	0.1584	-6.00252E-002	2.59382E-005	0.00000E+000	-6.00000E-002	1.11522E-003	7	...........	-327.66
	792	0.1586	-5.00377E-002	2.61815E-005	0.00000E+000	-5.00000E-002	1.04022E-003	7	...........	-327.66
	793	0.1588	-4.00002E-002	2.64165E-005	0.00000E+000	-4.00000E-002	1.14022E-003	7	...........	-327.66
	794	0.159	-2.98627E-002	2.66523E-005	0.00000E+000	-3.00000E-002	1.06522E-003	7	...........	-327.66
	795	0.1592	-2.00002E-002	2.68663E-005	0.00000E+000	-2.00000E-002	1.14022E-003	7	...........	-327.66
	796	0.1594	-9.96269E-003	2.70876E-005	0.00000E+000	-1.00000E-002	1.16522E-003	7	...........	-327.66
	797	0.1596	-3.76875E-005	2.73014E-005	0.00000E+000	-1.49012E-008	1.09022E-003	7	...........	-327.66
	798	0.1598	9.93731E-003	2.75182E-005	0.00000E+000	9.99999E-003	1.19022E-003	7	...........	-327.66
	799	0.16	1.99873E-002	2.77312E-005	0.00000E+000	2.00000E-002	1.01522E-003	7	...........	-327.66
	800	0.1602	2.99373E-002	2.79322E-005	0.00000E+000	3.00000E-002	1.11522E-003	7	...........	-327.66
	801	0.1604	3.99123E-002	2.81337E-005	0.00000E+000	4.00000E-002	1.06522E-003	7	...........	-327.66
	802	0.1606	5.00873E-002	2.83238E-005	0.00000E+000	5.00000E-002	1.16522E-003	7	...........	-327.66
	803	0.1608	6.00123E-002	2.84983E-005	0.00000E+000	6.00000E-002	1.11522E-003	7	...........	-327.66
	804	0.161	6.99373E-002	2.86716E-005	0.00000E+000	7.00000E-002	1.16522E-003	7	...........	-327.66
	805	0.1612	8.00123E-002	2.88321E-005	0.00000E+000	8.00000E-002	1.11522E-003	7	...........	-327.66
	806	0.1614	9.01373E-002	2.89821E-005	0.00000E+000	9.00000E-002	1.04022E-003	7	...........	-327.66
	807	0.1616	9.99998E-002	2.91254E-005	0.00000E+000	1.00000E-001	1.09022E-003	7	...........	-327.66
	808	0.1618	1.10012E-001	2.92531E-005	0.00000E+000	1.10000E-001	1.04022E-003	7	...........	-327.66
	809	0.162	1.20037E-001	2.93727E-005	0.00000E+000	1.20000E-001	1.06522E-003	7	...........	-327.66
	810	0.1622	1.29850E-001	2.94807E-005	0.00000E+000	1.30000E-001	1.19022E-003	7	...........	-327.66
	811	0.1624	1.40037E-001	2.95857E-005	0.00000E+000	1.40000E-001	1.24022E-003	7	...........	-327.66
	812	0.1626	1.50100E-001	2.96834E-005	0.00000E+000	1.50000E-001	1.16522E-003	7	...........	-327.66
	813	0.1628	1.60012E-001	2.97655E-005	0.00000E+000	1.60000E-001	1.09022E-003	7	...........	-327.66
	814	0.163	1.70112E-001	2.98427E-005	0.00000E+000	1.70000E-001	1.04022E-003	7	...........	-327.66
	815	0.1632	1.79937E-001	2.99095E-005	0.00000E+000	1.80000E-001	9.40224E-004	7	...........	-327.66
	816	0.1634	1.89900E-001	2.99660E-005	0.00000E+000	1.90000E-001	1.04022E-003	7	...........	-327.66
	817	0.1636	1.99937E-001	3.00195E-005	0.00000E+000	2.00000E-001	1.16522E-003	7	...........	-327.66
	818	0.1638	2.10025E-001	3.00575E-005	0.00000E+000	2.10000E-001	1.21522E-003	7	...........	-327.66
	819	0.164	2.19950E-001	3.00890E-005	0.00000E+000	2.20000E-001	1.19022E-003	7	...........	-327.66
	820	0.1642	2.29987E-001	3.01155E-005	0.00000E+000	2.30000E-001	1.09022E-003	7	...........	-327.66
	821	0.1644	2.39962E-001	3.01325E-005	0.00000E+000	2.40000E-001	1.01522E-003	7	...........	-327.66
	822	0.1646	2.50012E-001	3.01433E-005	0.00000E+000	2.50000E-001	1.16522E-003	7	...........	-327.66
	823	0.1648	2.59950E-001	3.01415E-005	0.00000E+000	2.60000E-001	1.06522E-003	7	...........	-327.66
	824	0.165	2.70012E-001	3.01415E-005	0.00000E+000	2.70000E-001	1.19022E-003	7	...........	-327.66
	825	0.1652	2.79912E-001	3.01340E-005	0.00000E+000	2.80000E-001	1.01522E-003	7	...........	-327.66
	826	0.1654	2.89962E-001	3.01223E-005	0.00000E+000	2.90000E-001	1.24022E-003	7	...........	-327.66
	827	0.1656	2.99950E-001	3.01060E-005	0.00000E+000	3.00000E-001	1.14022E-003	7	...........	-327.66
	828	0.1658	3.10025E-001	3.00898E-005	0.00000E+000	3.10000E-001	1.09022E-003	7	...........	-327.66
	829	0.166	3.19950E-001	3.00658E-005	0.00000E+000	3.20000E-001	1.06522E-003	7	...........	-327.66
	830	0.1662	3.30012E-001	3.00462E-005	0.00000E+000	3.30000E-001	1.14022E-003	7	...........	-327.66
	831	0.1664	3.39950E-001	3.00170E-005	0.00000E+000	3.40000E-001	1.19022E-003	7	...........	-327.66
	832	0.1666	3.49987E-001	2.99892E-005	0.00000E+000	3.50000E-001	1.04022E-003	7	...........	-327.66
	833	0.1668	3.59937E-001	2.99592E-005	0.00000E+000	3.60000E-001	1.04022E-003	7	...........	-327.66
	834	0.167	3.69887E-001	2.99267E-005	0.00000E+000	3.70000E-001	1.06522E-003	7	...........	-327.66
	835	0.1672	3.79937E-001	2.98925E-005	0.00000E+000	3.80000E-001	1.11522E-003	7	...........	-327.66
	836	0.1674	3.89962E-001	2.98590E-005	0.00000E+000	3.90000E-001	1.24022E-003	7	...........	-327.66
	837	0.1676	3.99937E-001	2.98282E-005	0.00000E+000	4.00000E-001	1.01522E-003	7	...........	-327.66
	838	0.1678	4.09862E-001	2.97915E-005	0.00000E+000	4.10000E-001	1.01522E-003	7	...........	-327.66
	839	0.168	4.19987E-001	2.97585E-005	0.00000E+000	4.20000E-001	1.06522E-003	7	...........	-327.66
	840	0.1682	4.29987E-001	2.97227E-005	0.00000E+000	4.30000E-001	1.06522E-003	7	...........	-327.66
	841	0.1684	4.39937E-001	2.96867E-005	0.00000E+000	4.40000E-001	9.90224E-004	7	...........	-327.66
	842	0.1686	4.50087E-001	2.96544E-005	0.00000E+000	4.50000E-001	1.19022E-003	7	...........	-327.66
	843	0.1688	4.59937E-001	2.96207E-005	0.00000E+000	4.60000E-001	1.01522E-003	7	...........	-327.66
	844	0.169	4.69937E-001	2.95927E-005	0.00000E+000	4.70000E-001	1.04022E-003	7	...........	-327.66
	845	0.1692	4.79975E-001	2.95619E-005	0.00000E+000	4.80000E-001	1.19022E-003	7	...........	-327.66
	846	0.1694	4.89900E-001	2.95362E-005	0.00000E+000	4.90000E-001	1.06522E-003	7	...........	-327.66
	847	0.1696	4.99950E-001	2.95109E-005	0.00000E+000	5.00000E-001	1.09022E-003	7	...........	-327.66
	848	0.1698	5.09912E-001	2.94872E-005	0.00000E+000	5.10000E-001	1.06522E-003	7	...........	-327.66
	849	0.17	5.19962E-001	2.94719E-005	0.00000E+000	5.20000E-001	1.16522E-003	7	...........	-327.66
	850	0.1702	5.29937E-001	2.94544E-005	0.00000E+000	5.30000E-001	1.06522E-003	7	...........	-327.66
	851	0.1704	5.39887E-001	2.94419E-005	0.00000E+000	5.40000E-001	1.09022E-003	7	...........	-327.66
	852	0.1706	5.49937E-001	2.94327E-005	0.00000E+000	5.50000E-001	1.09022E-003	7	...........	-327.66
	853	0.1708	5.59937E-001	2.94289E-005	0.00000E+000	5.60000E-001	1.06522E-003	7	...........	-327.66
	854	0.171	5.69975E-001	2.94257E-005	0.00000E+000	5.70000E-001	9.40224E-004	7	...........	-327.66
	855	0.1712	5.79937E-001	2.94304E-005	0.00000E+000	5.80000E-001	1.06522E-003	7	...........	-327.66
	856	0.1714	5.89937E-001	2.94367E-005	0.00000E+000	5.90000E-001	1.11522E-003	7	...........	-327.66
	857	0.1716	5.99925E-001	2.94449E-005	0.00000E+000	6.00000E-001	1.04022E-003	7	...........	-327.66
CURVE4	TABLE
	Pt	T	Vf	Im	Vu	Sig	Ach	IERange	Over	Temp
	#	s	V vs. Ref.	A	V	V	V	#	bits	deg C
	858	0.1718	5.90012E-001	2.69471E-005	0.00000E+000	5.90000E-001	1.06522E-003	7	...........	-327.66
	859	0.172	5.79937E-001	2.46318E-005	0.00000E+000	5.80000E-001	1.09022E-003	7	...........	-327.66
	860	0.1722	5.69975E-001	2.27162E-005	0.00000E+000	5.70000E-001	1.24022E-003	7	...........	-327.66
	861	0.1724	5.59937E-001	2.10615E-005	0.00000E+000	5.60000E-001	1.01522E-003	7	...........	-327.66
	862	0.1726	5.50012E-001	1.95903E-005	0.00000E+000	5.50000E-001	1.09022E-003	7	...........	-327.66
	863	0.1728	5.39937E-001	1.82584E-005	0.00000E+000	5.40000E-001	1.14022E-003	7	...........	-327.66
	864	0.173	5.29962E-001	1.70345E-005	0.00000E+000	5.30000E-001	1.16522E-003	7	...........	-327.66
	865	0.1732	5.19950E-001	1.58931E-005	0.00000E+000	5.20000E-001	1.19022E-003	7	...........	-327.66
	866	0.1734	5.10037E-001	1.48242E-005	0.00000E+000	5.10000E-001	1.16522E-003	7	...........	-327.66
	867	0.1736	4.99950E-001	1.38145E-005	0.00000E+000	5.00000E-001	1.14022E-003	7	...........	-327.66
	868	0.1738	4.90000E-001	1.28559E-005	0.00000E+000	4.90000E-001	1.14022E-003	7	...........	-327.66
	869	0.174	4.79962E-001	1.19370E-005	0.00000E+000	4.80000E-001	1.11522E-003	7	...........	-327.66
	870	0.1742	4.69937E-001	1.10629E-005	0.00000E+000	4.70000E-001	1.01522E-003	7	...........	-327.66
	871	0.1744	4.59937E-001	1.02200E-005	0.00000E+000	4.60000E-001	1.11522E-003	7	...........	-327.66
	872	0.1746	4.49925E-001	9.41069E-006	0.00000E+000	4.50000E-001	1.19022E-003	7	...........	-327.66
	873	0.1748	4.39937E-001	8.62508E-006	0.00000E+000	4.40000E-001	1.04022E-003	7	...........	-327.66
	874	0.175	4.30037E-001	7.86673E-006	0.00000E+000	4.30000E-001	1.06522E-003	7	...........	-327.66
	875	0.1752	4.19987E-001	7.13238E-006	0.00000E+000	4.20000E-001	1.21522E-003	7	...........	-327.66
	876	0.1754	4.09962E-001	6.42353E-006	0.00000E+000	4.10000E-001	1.16522E-003	7	...........	-327.66
	877	0.1756	3.99937E-001	5.72843E-006	0.00000E+000	4.00000E-001	1.11522E-003	7	...........	-327.66
	878	0.1758	3.89950E-001	5.05359E-006	0.00000E+000	3.90000E-001	1.19022E-003	7	...........	-327.66
	879	0.176	3.80137E-001	4.40025E-006	0.00000E+000	3.80000E-001	1.09022E-003	7	...........	-327.66
	880	0.1762	3.70037E-001	3.75892E-006	0.00000E+000	3.70000E-001	9.90224E-004	7	...........	-327.66
	881	0.1764	3.60012E-001	3.13158E-006	0.00000E+000	3.60000E-001	1.24022E-003	7	...........	-327.66
	882	0.1766	3.49975E-001	2.52275E-006	0.00000E+000	3.50000E-001	1.19022E-003	7	...........	-327.66
	883	0.1768	3.40037E-001	1.92692E-006	0.00000E+000	3.40000E-001	1.04022E-003	7	...........	-327.66
	884	0.177	3.30025E-001	1.34459E-006	0.00000E+000	3.30000E-001	1.11522E-003	7	...........	-327.66
	885	0.1772	3.20087E-001	7.73009E-007	0.00000E+000	3.20000E-001	1.04022E-003	7	...........	-327.66
	886	0.1774	3.10087E-001	2.18434E-007	0.00000E+000	3.10000E-001	1.09022E-003	7	...........	-327.66
	887	0.1776	2.99975E-001	-3.33141E-007	0.00000E+000	3.00000E-001	1.06522E-003	7	...........	-327.66
	888	0.1778	2.90150E-001	-8.68464E-007	0.00000E+000	2.90000E-001	9.65224E-004	7	...........	-327.66
	889	0.178	2.79987E-001	-1.39704E-006	0.00000E+000	2.80000E-001	1.11522E-003	7	...........	-327.66
	890	0.1782	2.69962E-001	-1.91661E-006	0.00000E+000	2.70000E-001	9.65224E-004	7	...........	-327.66
	891	0.1784	2.60037E-001	-2.42343E-006	0.00000E+000	2.60000E-001	1.11522E-003	7	...........	-327.66
	892	0.1786	2.50150E-001	-2.92224E-006	0.00000E+000	2.50000E-001	1.14022E-003	7	...........	-327.66
	893	0.1788	2.40025E-001	-3.41506E-006	0.00000E+000	2.40000E-001	9.90224E-004	7	...........	-327.66
	894	0.179	2.30062E-001	-3.89513E-006	0.00000E+000	2.30000E-001	1.06522E-003	7	...........	-327.66
	895	0.1792	2.20087E-001	-4.37794E-006	0.00000E+000	2.20000E-001	1.16522E-003	7	...........	-327.66
	896	0.1794	2.10150E-001	-4.84526E-006	0.00000E+000	2.10000E-001	1.29022E-003	7	...........	-327.66
	897	0.1796	2.00087E-001	-5.30832E-006	0.00000E+000	2.00000E-001	1.01522E-003	7	...........	-327.66
	898	0.1798	1.90025E-001	-5.76438E-006	0.00000E+000	1.90000E-001	1.19022E-003	7	...........	-327.66
	899	0.18	1.79987E-001	-6.21494E-006	0.00000E+000	1.80000E-001	1.06522E-003	7	...........	-327.66
	900	0.1802	1.70325E-001	-6.65875E-006	0.00000E+000	1.70000E-001	1.19022E-003	7	...........	-327.66