File: Test_Data_Files/20250509_IF0011_IIA42_PBSair_E01_D_CV5000_PEDOT.DTA
EXPLAIN
TAG	CV
TITLE	LABEL	CV5000	Test Identifier
DATE	LABEL	5/9/2025	Date
TIME	LABEL	16:23:41	Time
NOTES	NOTES	1	Notes...

PSTAT	PSTAT	REF600P-43058	Potentiostat
VINIT	POTEN	0.00000E+000	T	Initial E (V)
VLIMIT1	POTEN	-9.00000E-001	F	Scan Limit 1 (V)
VLIMIT2	POTEN	6.00000E-001	F	Scan Limit 2 (V)
VFINAL	POTEN	0.00000E+000	T	Final E (V)
SCANRATE	QUANT	4.99999E+003	Scan Rate (mV/s)
STEPSIZE	QUANT	1.00000E+001	Step Size (mV)
CYCLES	IQUANT	3	Cycles (#)
IMODE	SELECTOR	1	I/E Range Mode
IRANGE	QUANT	1.00000E-002	Max Current (mA)
AREA	QUANT	1.00000E+000	Sample Area (cm^2)
EQDELAY	QUANT	5.00000E+000	Equil. Time (s)
IRCOMP	SELECTOR	0	IRComp
PFCOR	QUANT	5.00000E+001	PF Corr. (ohm)
SAMPLINGMODE	SELECTOR	2	Sampling Mode
EOC	QUANT	0.3165924	Open Circuit (V)
ELECTRODETYPE	SELECTOR	0	Electrode Type
STRIPPING	TOGGLE	F	Used for Stripping
SEQUENCER	TOGGLE	TRUE	Run as Sequence
PSTATMODEL	IQUANT	7	Pstat Model
PSTATSECTION	LABEL	REF600P-43058	Pstat Section
PSTATSERIALNO	LABEL	43058	Pstat Serial Number
CTRLMODE	IQUANT	1	Control Mode
ELECTROMETER	IQUANT	0	RE=0 or CS=1
IESTAB	IQUANT	2	I/E Stability
CASPEED	IQUANT	4	Control Amp Speed
CONVENTION	IQUANT	1	Current Convention
ICHRANGE	IQUANT	2	Ich Range
ICHRANGEMODE	TOGGLE	F	Ich Auto Range
ICHOFFSETENABLE	TOGGLE	F	Ich Offset Enable
ICHOFFSET	QUANT	0	Ich Offset (V)
ICHFILTER	IQUANT	2	Ich Filter
VCHRANGE	IQUANT	2	Vch Range
VCHRANGEMODE	TOGGLE	F	Vch Auto Range
VCHOFFSETENABLE	TOGGLE	F	Vch Offset Enable
VCHOFFSET	QUANT	0	Vch Offset (V)
VCHFILTER	IQUANT	2	Vch Filter
ACHRANGE	IQUANT	2	Ach Range
ACHOFFSETENABLE	TOGGLE	F	Ach Offset Enable
ACHOFFSET	QUANT	0	Ach Offset (V)
ACHFILTER	IQUANT	1	Ach Filter
IERANGELOWERLIMIT	IQUANT	1	I/E Range Lower Limit
IERANGEMODE	TOGGLE	F	I/E AutoRange
IERANGE	IQUANT	7	I/E Range
POSFEEDENABLE	TOGGLE	F	Positive Feedback IR Comp
POSFEEDRESISTANCE	QUANT	0	Positive Feedback Resistance (ohm)
ACHSELECT	IQUANT	4	Ach Select
SENSECABLEID	IQUANT	7	Sense Cable ID
PWRCABLEID	IQUANT	7	Power Cable ID
DCCALDATE	LABEL	5/8/2025	DC Calibration Date
ACCALDATE	LABEL	5/8/2025	AC Calibration Date
THERMOSELECT	IQUANT	1	Thermo Select
FRAMEWORKVERSION	LABEL	7.10.4	Framework Version
INSTRUMENTVERSION	LABEL	5.01	Instrument Version
COMMVERSION	LABEL	5.10	Communications Version
CPUPLDVERSION	LABEL	6.00	CPU PLD Version
CTRLPLDVERSION	LABEL	3.21	CTRL PLD Version
PSTATPLDVERSION	LABEL	0.00	PSTAT PLD Version
CURVE1	TABLE
	Pt	T	Vf	Im	Vu	Sig	Ach	IERange	Over	Temp
	#	s	V vs. Ref.	A	V	V	V	#	bits	deg C
	0	0.002	3.16557E-001	1.09415E-008	0.00000E+000	3.16600E-001	1.35919E-003	7	...........	-327.66
	1	0.004	3.07368E-001	-8.68649E-008	0.00000E+000	3.06600E-001	1.39712E-003	7	...........	-327.66
	2	0.006	2.97447E-001	-8.87962E-008	0.00000E+000	2.96600E-001	1.39022E-003	7	...........	-327.66
	3	0.008	2.87313E-001	-9.01584E-008	0.00000E+000	2.86600E-001	1.41781E-003	7	...........	-327.66
	4	0.01	2.77345E-001	-9.03654E-008	0.00000E+000	2.76600E-001	1.44540E-003	7	...........	-327.66
	5	0.012	2.67370E-001	-9.25898E-008	0.00000E+000	2.66600E-001	1.42126E-003	7	...........	-327.66
	6	0.014	2.57380E-001	-9.36417E-008	0.00000E+000	2.56600E-001	1.42126E-003	7	...........	-327.66
	7	0.016	2.47369E-001	-9.40728E-008	0.00000E+000	2.46600E-001	1.39195E-003	7	...........	-327.66
	8	0.018	2.37375E-001	-9.56247E-008	0.00000E+000	2.36600E-001	1.37988E-003	7	...........	-327.66
	9	0.02	2.27381E-001	-9.65559E-008	0.00000E+000	2.26600E-001	1.36609E-003	7	...........	-327.66
	10	0.022	2.17398E-001	-9.74525E-008	0.00000E+000	2.16600E-001	1.36436E-003	7	...........	-327.66
	11	0.024	2.07363E-001	-9.90217E-008	0.00000E+000	2.06600E-001	1.39712E-003	7	...........	-327.66
	12	0.026	1.97444E-001	-1.00281E-007	0.00000E+000	1.96600E-001	1.35574E-003	7	...........	-327.66
	13	0.028	1.87406E-001	-1.01522E-007	0.00000E+000	1.86600E-001	1.40747E-003	7	...........	-327.66
	14	0.03	1.77447E-001	-1.03246E-007	0.00000E+000	1.76600E-001	1.41609E-003	7	...........	-327.66
	15	0.032	1.67438E-001	-1.04833E-007	0.00000E+000	1.66600E-001	1.38505E-003	7	...........	-327.66
	16	0.034	1.57381E-001	-1.05626E-007	0.00000E+000	1.56600E-001	1.40574E-003	7	...........	-327.66
	17	0.036	1.47485E-001	-1.06712E-007	0.00000E+000	1.46600E-001	1.37298E-003	7	...........	-327.66
	18	0.038	1.37467E-001	-1.08575E-007	0.00000E+000	1.36600E-001	1.41436E-003	7	...........	-327.66
	19	0.04	1.27420E-001	-1.10644E-007	0.00000E+000	1.26600E-001	1.37988E-003	7	...........	-327.66
	20	0.042	1.17354E-001	-1.11765E-007	0.00000E+000	1.16600E-001	1.35919E-003	7	...........	-327.66
	21	0.044	1.07420E-001	-1.13696E-007	0.00000E+000	1.06600E-001	1.41609E-003	7	...........	-327.66
	22	0.046	9.74359E-002	-1.14800E-007	0.00000E+000	9.66000E-002	1.41436E-003	7	...........	-327.66
	23	0.048	8.74006E-002	-1.16852E-007	0.00000E+000	8.66000E-002	1.36781E-003	7	...........	-327.66
	24	0.05	7.73747E-002	-1.18783E-007	0.00000E+000	7.66000E-002	1.42643E-003	7	...........	-327.66
	25	0.052	6.74178E-002	-1.20283E-007	0.00000E+000	6.66000E-002	1.34712E-003	7	...........	-327.66
	26	0.054	5.74204E-002	-1.21335E-007	0.00000E+000	5.66000E-002	1.38505E-003	7	...........	-327.66
	27	0.056	4.74178E-002	-1.23008E-007	0.00000E+000	4.66000E-002	1.39712E-003	7	...........	-327.66
	28	0.058	3.74083E-002	-1.24836E-007	0.00000E+000	3.66000E-002	1.37471E-003	7	...........	-327.66
	29	0.06	2.73877E-002	-1.26974E-007	0.00000E+000	2.66000E-002	1.40057E-003	7	...........	-327.66
	30	0.062	1.74178E-002	-1.28267E-007	0.00000E+000	1.66000E-002	1.40057E-003	7	...........	-327.66
	31	0.064	7.43507E-003	-1.29716E-007	0.00000E+000	6.59999E-003	1.41091E-003	7	...........	-327.66
	32	0.066	-2.63476E-003	-1.31095E-007	0.00000E+000	-3.40001E-003	1.39884E-003	7	...........	-327.66
	33	0.068	-1.25546E-002	-1.32595E-007	0.00000E+000	-1.34000E-002	1.39712E-003	7	...........	-327.66
	34	0.07	-2.25796E-002	-1.33595E-007	0.00000E+000	-2.34000E-002	1.40747E-003	7	...........	-327.66
	35	0.072	-3.26460E-002	-1.35182E-007	0.00000E+000	-3.34000E-002	1.36091E-003	7	...........	-327.66
	36	0.074	-4.26037E-002	-1.36751E-007	0.00000E+000	-4.34000E-002	1.42126E-003	7	...........	-327.66
	37	0.076	-5.25925E-002	-1.38337E-007	0.00000E+000	-5.34000E-002	1.38850E-003	7	...........	-327.66
	38	0.078	-6.25322E-002	-1.39148E-007	0.00000E+000	-6.34000E-002	1.38678E-003	7	...........	-327.66
	39	0.08	-7.25908E-002	-1.41665E-007	0.00000E+000	-7.34000E-002	1.43333E-003	7	...........	-327.66
	40	0.082	-8.26710E-002	-1.42683E-007	0.00000E+000	-8.34000E-002	1.40057E-003	7	...........	-327.66
	41	0.084	-9.25770E-002	-1.43114E-007	0.00000E+000	-9.34000E-002	1.37815E-003	7	...........	-327.66
	42	0.086	-1.02606E-001	-1.43890E-007	0.00000E+000	-1.03400E-001	1.39884E-003	7	...........	-327.66
	43	0.088	-1.12614E-001	-1.45131E-007	0.00000E+000	-1.13400E-001	1.38505E-003	7	...........	-327.66
	44	0.09	-1.22651E-001	-1.46373E-007	0.00000E+000	-1.23400E-001	1.39884E-003	7	...........	-327.66
	45	0.092	-1.32606E-001	-1.47373E-007	0.00000E+000	-1.33400E-001	1.41781E-003	7	...........	-327.66
	46	0.094	-1.42563E-001	-1.47494E-007	0.00000E+000	-1.43400E-001	1.42988E-003	7	...........	-327.66
	47	0.096	-1.52655E-001	-1.48925E-007	0.00000E+000	-1.53400E-001	1.38333E-003	7	...........	-327.66
	48	0.098	-1.62605E-001	-1.49977E-007	0.00000E+000	-1.63400E-001	1.39367E-003	7	...........	-327.66
	49	0.1	-1.72591E-001	-1.50718E-007	0.00000E+000	-1.73400E-001	1.39022E-003	7	...........	-327.66
	50	0.102	-1.82574E-001	-1.50943E-007	0.00000E+000	-1.83400E-001	1.40919E-003	7	...........	-327.66
	51	0.104	-1.92571E-001	-1.51994E-007	0.00000E+000	-1.93400E-001	1.36264E-003	7	...........	-327.66
	52	0.106	-2.02620E-001	-1.52943E-007	0.00000E+000	-2.03400E-001	1.38333E-003	7	...........	-327.66
	53	0.108	-2.12561E-001	-1.53943E-007	0.00000E+000	-2.13400E-001	1.36953E-003	7	...........	-327.66
	54	0.11	-2.22512E-001	-1.54391E-007	0.00000E+000	-2.23400E-001	1.38505E-003	7	...........	-327.66
	55	0.112	-2.32572E-001	-1.55098E-007	0.00000E+000	-2.33400E-001	1.37126E-003	7	...........	-327.66
	56	0.114	-2.42558E-001	-1.56305E-007	0.00000E+000	-2.43400E-001	1.39712E-003	7	...........	-327.66
	57	0.116	-2.52583E-001	-1.56495E-007	0.00000E+000	-2.53400E-001	1.38850E-003	7	...........	-327.66
	58	0.118	-2.62483E-001	-1.57254E-007	0.00000E+000	-2.63400E-001	1.36091E-003	7	...........	-327.66
	59	0.12	-2.72557E-001	-1.57668E-007	0.00000E+000	-2.73400E-001	1.40229E-003	7	...........	-327.66
	60	0.122	-2.82541E-001	-1.57892E-007	0.00000E+000	-2.83400E-001	1.42643E-003	7	...........	-327.66
	61	0.124	-2.92576E-001	-1.58616E-007	0.00000E+000	-2.93400E-001	1.40574E-003	7	...........	-327.66
	62	0.126	-3.02522E-001	-1.58961E-007	0.00000E+000	-3.03400E-001	1.40919E-003	7	...........	-327.66
	63	0.128	-3.12603E-001	-1.60151E-007	0.00000E+000	-3.13400E-001	1.38160E-003	7	...........	-327.66
	64	0.13	-3.22539E-001	-1.60892E-007	0.00000E+000	-3.23400E-001	1.43678E-003	7	...........	-327.66
	65	0.132	-3.32605E-001	-1.61116E-007	0.00000E+000	-3.33400E-001	1.40229E-003	7	...........	-327.66
	66	0.134	-3.42519E-001	-1.62030E-007	0.00000E+000	-3.43400E-001	1.41436E-003	7	...........	-327.66
	67	0.136	-3.52589E-001	-1.62737E-007	0.00000E+000	-3.53400E-001	1.41264E-003	7	...........	-327.66
	68	0.138	-3.62578E-001	-1.63289E-007	0.00000E+000	-3.63400E-001	1.40057E-003	7	...........	-327.66
	69	0.14	-3.72535E-001	-1.65013E-007	0.00000E+000	-3.73400E-001	1.36609E-003	7	...........	-327.66
	70	0.142	-3.82589E-001	-1.65514E-007	0.00000E+000	-3.83400E-001	1.41264E-003	7	...........	-327.66
	71	0.144	-3.92583E-001	-1.66996E-007	0.00000E+000	-3.93400E-001	1.37471E-003	7	...........	-327.66
	72	0.146	-4.02574E-001	-1.68083E-007	0.00000E+000	-4.03400E-001	1.42815E-003	7	...........	-327.66
	73	0.148	-4.12537E-001	-1.68997E-007	0.00000E+000	-4.13400E-001	1.38160E-003	7	...........	-327.66
	74	0.15	-4.22514E-001	-1.70290E-007	0.00000E+000	-4.23400E-001	1.39195E-003	7	...........	-327.66
	75	0.152	-4.32566E-001	-1.71187E-007	0.00000E+000	-4.33400E-001	1.40747E-003	7	...........	-327.66
	76	0.154	-4.42541E-001	-1.72394E-007	0.00000E+000	-4.43400E-001	1.39884E-003	7	...........	-327.66
	77	0.156	-4.52526E-001	-1.73446E-007	0.00000E+000	-4.53400E-001	1.42988E-003	7	...........	-327.66
	78	0.158	-4.62502E-001	-1.73687E-007	0.00000E+000	-4.63400E-001	1.38678E-003	7	...........	-327.66
	79	0.16	-4.72518E-001	-1.74377E-007	0.00000E+000	-4.73400E-001	1.38505E-003	7	...........	-327.66
	80	0.162	-4.82561E-001	-1.75774E-007	0.00000E+000	-4.83400E-001	1.37298E-003	7	...........	-327.66
	81	0.164	-4.92509E-001	-1.77015E-007	0.00000E+000	-4.93400E-001	1.38505E-003	7	...........	-327.66
	82	0.166	-5.02474E-001	-1.76584E-007	0.00000E+000	-5.03400E-001	1.37643E-003	7	...........	-327.66
	83	0.168	-5.12535E-001	-1.76998E-007	0.00000E+000	-5.13400E-001	1.42126E-003	7	...........	-327.66
	84	0.17	-5.22491E-001	-1.77308E-007	0.00000E+000	-5.23400E-001	1.38333E-003	7	...........	-327.66
	85	0.172	-5.32563E-001	-1.78360E-007	0.00000E+000	-5.33400E-001	1.41609E-003	7	...........	-327.66
	86	0.174	-5.42515E-001	-1.78705E-007	0.00000E+000	-5.43400E-001	1.40747E-003	7	...........	-327.66
	87	0.176	-5.52561E-001	-1.79291E-007	0.00000E+000	-5.53400E-001	1.38333E-003	7	...........	-327.66
	88	0.178	-5.62549E-001	-1.79947E-007	0.00000E+000	-5.63400E-001	1.40057E-003	7	...........	-327.66
	89	0.18	-5.72507E-001	-1.81154E-007	0.00000E+000	-5.73400E-001	1.40574E-003	7	...........	-327.66
	90	0.182	-5.82502E-001	-1.81740E-007	0.00000E+000	-5.83400E-001	1.38333E-003	7	...........	-327.66
	91	0.184	-5.92541E-001	-1.81999E-007	0.00000E+000	-5.93400E-001	1.35402E-003	7	...........	-327.66
	92	0.186	-6.02502E-001	-1.83206E-007	0.00000E+000	-6.03400E-001	1.40919E-003	7	...........	-327.66
	93	0.188	-6.12561E-001	-1.84257E-007	0.00000E+000	-6.13400E-001	1.37471E-003	7	...........	-327.66
	94	0.19	-6.22473E-001	-1.84878E-007	0.00000E+000	-6.23400E-001	1.38850E-003	7	...........	-327.66
	95	0.192	-6.32499E-001	-1.86068E-007	0.00000E+000	-6.33400E-001	1.41609E-003	7	...........	-327.66
	96	0.194	-6.42542E-001	-1.86465E-007	0.00000E+000	-6.43400E-001	1.40229E-003	7	...........	-327.66
	97	0.196	-6.52473E-001	-1.87430E-007	0.00000E+000	-6.53400E-001	1.41091E-003	7	...........	-327.66
	98	0.198	-6.62464E-001	-1.88499E-007	0.00000E+000	-6.63400E-001	1.38333E-003	7	...........	-327.66
	99	0.2	-6.72493E-001	-1.88396E-007	0.00000E+000	-6.73400E-001	1.39712E-003	7	...........	-327.66
	100	0.202	-6.82491E-001	-1.89344E-007	0.00000E+000	-6.83400E-001	1.36781E-003	7	...........	-327.66
	101	0.204	-6.92497E-001	-1.90000E-007	0.00000E+000	-6.93400E-001	1.41436E-003	7	...........	-327.66
	102	0.206	-7.02481E-001	-1.90620E-007	0.00000E+000	-7.03400E-001	1.41436E-003	7	...........	-327.66
	103	0.208	-7.12505E-001	-1.91345E-007	0.00000E+000	-7.13400E-001	1.37298E-003	7	...........	-327.66
	104	0.21	-7.22521E-001	-1.92345E-007	0.00000E+000	-7.23400E-001	1.35574E-003	7	...........	-327.66
	105	0.212	-7.32491E-001	-1.92759E-007	0.00000E+000	-7.33400E-001	1.41609E-003	7	...........	-327.66
	106	0.214	-7.42492E-001	-1.94431E-007	0.00000E+000	-7.43400E-001	1.39022E-003	7	...........	-327.66
	107	0.216	-7.52511E-001	-1.94345E-007	0.00000E+000	-7.53400E-001	1.41264E-003	7	...........	-327.66
	108	0.218	-7.62529E-001	-1.95242E-007	0.00000E+000	-7.63400E-001	1.38333E-003	7	...........	-327.66
	109	0.22	-7.72486E-001	-1.94552E-007	0.00000E+000	-7.73400E-001	1.40747E-003	7	...........	-327.66
	110	0.222	-7.82449E-001	-1.94414E-007	0.00000E+000	-7.83400E-001	1.41953E-003	7	...........	-327.66
	111	0.224	-7.92548E-001	-1.93810E-007	0.00000E+000	-7.93400E-001	1.37815E-003	7	...........	-327.66
	112	0.226	-8.02518E-001	-1.92103E-007	0.00000E+000	-8.03400E-001	1.38333E-003	7	...........	-327.66
	113	0.228	-8.12503E-001	-1.89362E-007	0.00000E+000	-8.13400E-001	1.40229E-003	7	...........	-327.66
	114	0.23	-8.22471E-001	-1.85120E-007	0.00000E+000	-8.23400E-001	1.41609E-003	7	...........	-327.66
	115	0.232	-8.32480E-001	-1.79222E-007	0.00000E+000	-8.33400E-001	1.42471E-003	7	...........	-327.66
	116	0.234	-8.42532E-001	-1.71618E-007	0.00000E+000	-8.43400E-001	1.39712E-003	7	...........	-327.66
	117	0.236	-8.52510E-001	-1.63772E-007	0.00000E+000	-8.53400E-001	1.41609E-003	7	...........	-327.66
	118	0.238	-8.62457E-001	-1.54650E-007	0.00000E+000	-8.63400E-001	1.40747E-003	7	...........	-327.66
	119	0.24	-8.72549E-001	-1.45563E-007	0.00000E+000	-8.73400E-001	1.38850E-003	7	...........	-327.66
	120	0.242	-8.82489E-001	-1.36268E-007	0.00000E+000	-8.83400E-001	1.40229E-003	7	...........	-327.66
	121	0.244	-8.92539E-001	-1.27336E-007	0.00000E+000	-8.93400E-001	1.37126E-003	7	...........	-327.66
	122	0.246	-9.02492E-001	-1.19766E-007	0.00000E+000	-9.03400E-001	1.38678E-003	7	...........	-327.66
	123	0.248	-8.94127E-001	-3.07710E-008	0.00000E+000	-8.93400E-001	1.39540E-003	7	...........	-327.66
	124	0.25	-8.84096E-001	-8.02655E-009	0.00000E+000	-8.83400E-001	1.40057E-003	7	...........	-327.66
	125	0.252	-8.74104E-001	8.07909E-009	0.00000E+000	-8.73400E-001	1.40229E-003	7	...........	-327.66
	126	0.254	-8.64118E-001	2.18913E-008	0.00000E+000	-8.63400E-001	1.40574E-003	7	...........	-327.66
	127	0.256	-8.54105E-001	3.40309E-008	0.00000E+000	-8.53400E-001	1.38850E-003	7	...........	-327.66
	128	0.258	-8.44154E-001	4.58601E-008	0.00000E+000	-8.43400E-001	1.39022E-003	7	...........	-327.66
	129	0.26	-8.34105E-001	5.75341E-008	0.00000E+000	-8.33400E-001	1.43505E-003	7	...........	-327.66
	130	0.262	-8.24085E-001	6.77941E-008	0.00000E+000	-8.23400E-001	1.37298E-003	7	...........	-327.66
	131	0.264	-8.14130E-001	7.79852E-008	0.00000E+000	-8.13400E-001	1.39367E-003	7	...........	-327.66
	132	0.266	-8.04073E-001	8.75554E-008	0.00000E+000	-8.03400E-001	1.37815E-003	7	...........	-327.66
	133	0.268	-7.94111E-001	9.53496E-008	0.00000E+000	-7.93400E-001	1.37988E-003	7	...........	-327.66
	134	0.27	-7.84082E-001	1.02971E-007	0.00000E+000	-7.83400E-001	1.36264E-003	7	...........	-327.66
	135	0.272	-7.74099E-001	1.07851E-007	0.00000E+000	-7.73400E-001	1.41609E-003	7	...........	-327.66
	136	0.274	-7.64115E-001	1.12248E-007	0.00000E+000	-7.63400E-001	1.39540E-003	7	...........	-327.66
	137	0.276	-7.54176E-001	1.16387E-007	0.00000E+000	-7.53400E-001	1.34540E-003	7	...........	-327.66
	138	0.278	-7.44108E-001	1.18939E-007	0.00000E+000	-7.43400E-001	1.45747E-003	7	...........	-327.66
	139	0.28	-7.34130E-001	1.21405E-007	0.00000E+000	-7.33400E-001	1.38160E-003	7	...........	-327.66
	140	0.282	-7.24079E-001	1.23146E-007	0.00000E+000	-7.23400E-001	1.41091E-003	7	...........	-327.66
	141	0.284	-7.14119E-001	1.24095E-007	0.00000E+000	-7.13400E-001	1.39540E-003	7	...........	-327.66
	142	0.286	-7.04094E-001	1.28320E-007	0.00000E+000	-7.03400E-001	1.39712E-003	7	...........	-327.66
	143	0.288	-6.94064E-001	1.28613E-007	0.00000E+000	-6.93400E-001	1.43505E-003	7	...........	-327.66
	144	0.29	-6.84100E-001	1.31510E-007	0.00000E+000	-6.83400E-001	1.40747E-003	7	...........	-327.66
	145	0.292	-6.74069E-001	1.29389E-007	0.00000E+000	-6.73400E-001	1.41091E-003	7	...........	-327.66
	146	0.294	-6.64082E-001	1.30492E-007	0.00000E+000	-6.63400E-001	1.44712E-003	7	...........	-327.66
	147	0.296	-6.54105E-001	1.33820E-007	0.00000E+000	-6.53400E-001	1.40229E-003	7	...........	-327.66
	148	0.298	-6.44112E-001	1.33872E-007	0.00000E+000	-6.43400E-001	1.41781E-003	7	...........	-327.66
	149	0.3	-6.34106E-001	1.33200E-007	0.00000E+000	-6.33400E-001	1.37988E-003	7	...........	-327.66
	150	0.302	-6.24108E-001	1.33441E-007	0.00000E+000	-6.23400E-001	1.42298E-003	7	...........	-327.66
	151	0.304	-6.14155E-001	1.34131E-007	0.00000E+000	-6.13400E-001	1.39022E-003	7	...........	-327.66
	152	0.306	-6.04103E-001	1.36269E-007	0.00000E+000	-6.03400E-001	1.43333E-003	7	...........	-327.66
	153	0.308	-5.94117E-001	1.36545E-007	0.00000E+000	-5.93400E-001	1.40919E-003	7	...........	-327.66
	154	0.31	-5.84113E-001	1.35010E-007	0.00000E+000	-5.83400E-001	1.40402E-003	7	...........	-327.66
	155	0.312	-5.74111E-001	1.35596E-007	0.00000E+000	-5.73400E-001	1.38678E-003	7	...........	-327.66
	156	0.314	-5.64176E-001	1.37079E-007	0.00000E+000	-5.63400E-001	1.39022E-003	7	...........	-327.66
	157	0.316	-5.54130E-001	1.37666E-007	0.00000E+000	-5.53400E-001	1.40574E-003	7	...........	-327.66
	158	0.318	-5.44066E-001	1.37976E-007	0.00000E+000	-5.43400E-001	1.37298E-003	7	...........	-327.66
	159	0.32	-5.34173E-001	1.36804E-007	0.00000E+000	-5.33400E-001	1.40057E-003	7	...........	-327.66
	160	0.322	-5.24075E-001	1.37252E-007	0.00000E+000	-5.23400E-001	1.43160E-003	7	...........	-327.66
	161	0.324	-5.14165E-001	1.38528E-007	0.00000E+000	-5.13400E-001	1.38333E-003	7	...........	-327.66
	162	0.326	-5.04034E-001	1.38442E-007	0.00000E+000	-5.03400E-001	1.39540E-003	7	...........	-327.66
	163	0.328	-4.94121E-001	1.37528E-007	0.00000E+000	-4.93400E-001	1.39022E-003	7	...........	-327.66
	164	0.33	-4.84147E-001	1.38614E-007	0.00000E+000	-4.83400E-001	1.37643E-003	7	...........	-327.66
	165	0.332	-4.74120E-001	1.39856E-007	0.00000E+000	-4.73400E-001	1.35057E-003	7	...........	-327.66
	166	0.334	-4.64049E-001	1.40580E-007	0.00000E+000	-4.63400E-001	1.41436E-003	7	...........	-327.66
	167	0.336	-4.54134E-001	1.41356E-007	0.00000E+000	-4.53400E-001	1.38160E-003	7	...........	-327.66
	168	0.338	-4.44140E-001	1.41856E-007	0.00000E+000	-4.43400E-001	1.42988E-003	7	...........	-327.66
	169	0.34	-4.34126E-001	1.42632E-007	0.00000E+000	-4.33400E-001	1.39195E-003	7	...........	-327.66
	170	0.342	-4.24061E-001	1.43356E-007	0.00000E+000	-4.23400E-001	1.42643E-003	7	...........	-327.66
	171	0.344	-4.14175E-001	1.44822E-007	0.00000E+000	-4.13400E-001	1.37298E-003	7	...........	-327.66
	172	0.346	-4.04180E-001	1.46029E-007	0.00000E+000	-4.03400E-001	1.41436E-003	7	...........	-327.66
	173	0.348	-3.94166E-001	1.47322E-007	0.00000E+000	-3.93400E-001	1.39712E-003	7	...........	-327.66
	174	0.35	-3.84084E-001	1.48822E-007	0.00000E+000	-3.83400E-001	1.36953E-003	7	...........	-327.66
	175	0.352	-3.74140E-001	1.50081E-007	0.00000E+000	-3.73400E-001	1.42298E-003	7	...........	-327.66
	176	0.354	-3.64154E-001	1.51530E-007	0.00000E+000	-3.63400E-001	1.33333E-003	7	...........	-327.66
	177	0.356	-3.54192E-001	1.52357E-007	0.00000E+000	-3.53400E-001	1.37471E-003	7	...........	-327.66
	178	0.358	-3.44070E-001	1.53720E-007	0.00000E+000	-3.43400E-001	1.39712E-003	7	...........	-327.66
	179	0.36	-3.34205E-001	1.54185E-007	0.00000E+000	-3.33400E-001	1.38505E-003	7	...........	-327.66
	180	0.362	-3.24119E-001	1.56134E-007	0.00000E+000	-3.23400E-001	1.39367E-003	7	...........	-327.66
	181	0.364	-3.14158E-001	1.56220E-007	0.00000E+000	-3.13400E-001	1.38678E-003	7	...........	-327.66
	182	0.366	-3.04102E-001	1.56944E-007	0.00000E+000	-3.03400E-001	1.41609E-003	7	...........	-327.66
	183	0.368	-2.94185E-001	1.58876E-007	0.00000E+000	-2.93400E-001	1.37298E-003	7	...........	-327.66
	184	0.37	-2.84129E-001	1.59634E-007	0.00000E+000	-2.83400E-001	1.41781E-003	7	...........	-327.66
	185	0.372	-2.74151E-001	1.60324E-007	0.00000E+000	-2.73400E-001	1.40919E-003	7	...........	-327.66
	186	0.374	-2.64077E-001	1.60427E-007	0.00000E+000	-2.63400E-001	1.40574E-003	7	...........	-327.66
	187	0.376	-2.54199E-001	1.61152E-007	0.00000E+000	-2.53400E-001	1.37815E-003	7	...........	-327.66
	188	0.378	-2.44114E-001	1.62428E-007	0.00000E+000	-2.43400E-001	1.39884E-003	7	...........	-327.66
	189	0.38	-2.34184E-001	1.62410E-007	0.00000E+000	-2.33400E-001	1.37643E-003	7	...........	-327.66
	190	0.382	-2.24105E-001	1.63048E-007	0.00000E+000	-2.23400E-001	1.38160E-003	7	...........	-327.66
	191	0.384	-2.14178E-001	1.64256E-007	0.00000E+000	-2.13400E-001	1.39884E-003	7	...........	-327.66
	192	0.386	-2.04184E-001	1.64790E-007	0.00000E+000	-2.03400E-001	1.38678E-003	7	...........	-327.66
	193	0.388	-1.94173E-001	1.65549E-007	0.00000E+000	-1.93400E-001	1.40402E-003	7	...........	-327.66
	194	0.39	-1.84165E-001	1.66342E-007	0.00000E+000	-1.83400E-001	1.33850E-003	7	...........	-327.66
	195	0.392	-1.74225E-001	1.66256E-007	0.00000E+000	-1.73400E-001	1.38850E-003	7	...........	-327.66
	196	0.394	-1.64130E-001	1.66808E-007	0.00000E+000	-1.63400E-001	1.37988E-003	7	...........	-327.66
	197	0.396	-1.54254E-001	1.67049E-007	0.00000E+000	-1.53400E-001	1.36436E-003	7	...........	-327.66
	198	0.398	-1.44177E-001	1.67239E-007	0.00000E+000	-1.43400E-001	1.39022E-003	7	...........	-327.66
	199	0.4	-1.34257E-001	1.67687E-007	0.00000E+000	-1.33400E-001	1.39712E-003	7	...........	-327.66
	200	0.402	-1.24209E-001	1.68360E-007	0.00000E+000	-1.23400E-001	1.33160E-003	7	...........	-327.66
	201	0.404	-1.14212E-001	1.68308E-007	0.00000E+000	-1.13400E-001	1.36781E-003	7	...........	-327.66
	202	0.406	-1.04181E-001	1.68066E-007	0.00000E+000	-1.03400E-001	1.37298E-003	7	...........	-327.66
	203	0.408	-9.41960E-002	1.68170E-007	0.00000E+000	-9.34000E-002	1.41264E-003	7	...........	-327.66
	204	0.41	-8.41451E-002	1.68584E-007	0.00000E+000	-8.34000E-002	1.39712E-003	7	...........	-327.66
	205	0.412	-7.42089E-002	1.68791E-007	0.00000E+000	-7.34000E-002	1.38333E-003	7	...........	-327.66
	206	0.414	-6.41227E-002	1.67825E-007	0.00000E+000	-6.34000E-002	1.40229E-003	7	...........	-327.66
	207	0.416	-5.42072E-002	1.68687E-007	0.00000E+000	-5.34000E-002	1.35402E-003	7	...........	-327.66
	208	0.418	-4.41770E-002	1.68791E-007	0.00000E+000	-4.34000E-002	1.37815E-003	7	...........	-327.66
	209	0.42	-3.42339E-002	1.68998E-007	0.00000E+000	-3.34000E-002	1.41781E-003	7	...........	-327.66
	210	0.422	-2.41503E-002	1.68618E-007	0.00000E+000	-2.34000E-002	1.38678E-003	7	...........	-327.66
	211	0.424	-1.41623E-002	1.68532E-007	0.00000E+000	-1.34000E-002	1.42643E-003	7	...........	-327.66
	212	0.426	-4.18218E-003	1.68929E-007	0.00000E+000	-3.40001E-003	1.40057E-003	7	...........	-327.66
	213	0.428	5.84627E-003	1.68066E-007	0.00000E+000	6.59999E-003	1.42643E-003	7	...........	-327.66
	214	0.43	1.58644E-002	1.68032E-007	0.00000E+000	1.66000E-002	1.39195E-003	7	...........	-327.66
	215	0.432	2.58359E-002	1.67670E-007	0.00000E+000	2.66000E-002	1.39367E-003	7	...........	-327.66
	216	0.434	3.58721E-002	1.67377E-007	0.00000E+000	3.66000E-002	1.42643E-003	7	...........	-327.66
	217	0.436	4.58506E-002	1.68187E-007	0.00000E+000	4.66000E-002	1.36264E-003	7	...........	-327.66
	218	0.438	5.58359E-002	1.67842E-007	0.00000E+000	5.66000E-002	1.41264E-003	7	...........	-327.66
	219	0.44	6.58023E-002	1.67342E-007	0.00000E+000	6.66000E-002	1.38160E-003	7	...........	-327.66
	220	0.442	7.58204E-002	1.67221E-007	0.00000E+000	7.66000E-002	1.39367E-003	7	...........	-327.66
	221	0.444	8.58169E-002	1.67101E-007	0.00000E+000	8.66000E-002	1.41953E-003	7	...........	-327.66
	222	0.446	9.58782E-002	1.66721E-007	0.00000E+000	9.66000E-002	1.37643E-003	7	...........	-327.66
	223	0.448	1.05819E-001	1.66894E-007	0.00000E+000	1.06600E-001	1.38333E-003	7	...........	-327.66
	224	0.45	1.15744E-001	1.67170E-007	0.00000E+000	1.16600E-001	1.40402E-003	7	...........	-327.66
	225	0.452	1.25819E-001	1.67653E-007	0.00000E+000	1.26600E-001	1.37643E-003	7	...........	-327.66
	226	0.454	1.35855E-001	1.67308E-007	0.00000E+000	1.36600E-001	1.40574E-003	7	...........	-327.66
	227	0.456	1.45836E-001	1.66997E-007	0.00000E+000	1.46600E-001	1.36436E-003	7	...........	-327.66
	228	0.458	1.55834E-001	1.67532E-007	0.00000E+000	1.56600E-001	1.37815E-003	7	...........	-327.66
	229	0.46	1.65826E-001	1.67584E-007	0.00000E+000	1.66600E-001	1.37988E-003	7	...........	-327.66
	230	0.462	1.75857E-001	1.67084E-007	0.00000E+000	1.76600E-001	1.40574E-003	7	...........	-327.66
	231	0.464	1.85809E-001	1.66963E-007	0.00000E+000	1.86600E-001	1.44022E-003	7	...........	-327.66
	232	0.466	1.95849E-001	1.67273E-007	0.00000E+000	1.96600E-001	1.39367E-003	7	...........	-327.66
	233	0.468	2.05777E-001	1.67618E-007	0.00000E+000	2.06600E-001	1.36609E-003	7	...........	-327.66
	234	0.47	2.15790E-001	1.68239E-007	0.00000E+000	2.16600E-001	1.37643E-003	7	...........	-327.66
	235	0.472	2.25791E-001	1.68015E-007	0.00000E+000	2.26600E-001	1.39712E-003	7	...........	-327.66
	236	0.474	2.35789E-001	1.67635E-007	0.00000E+000	2.36600E-001	1.37471E-003	7	...........	-327.66
	237	0.476	2.45792E-001	1.68015E-007	0.00000E+000	2.46600E-001	1.34022E-003	7	...........	-327.66
	238	0.478	2.55823E-001	1.67411E-007	0.00000E+000	2.56600E-001	1.40057E-003	7	...........	-327.66
	239	0.48	2.65796E-001	1.66997E-007	0.00000E+000	2.66600E-001	1.39367E-003	7	...........	-327.66
	240	0.482	2.75770E-001	1.67359E-007	0.00000E+000	2.76600E-001	1.35057E-003	7	...........	-327.66
	241	0.484	2.85749E-001	1.67463E-007	0.00000E+000	2.86600E-001	1.36436E-003	7	...........	-327.66
	242	0.486	2.95871E-001	1.67894E-007	0.00000E+000	2.96600E-001	1.35229E-003	7	...........	-327.66
	243	0.488	3.05767E-001	1.67911E-007	0.00000E+000	3.06600E-001	1.36781E-003	7	...........	-327.66
	244	0.49	3.15776E-001	1.67911E-007	0.00000E+000	3.16600E-001	1.37815E-003	7	...........	-327.66
	245	0.492	3.25807E-001	1.67653E-007	0.00000E+000	3.26600E-001	1.39195E-003	7	...........	-327.66
	246	0.494	3.35807E-001	1.67411E-007	0.00000E+000	3.36600E-001	1.35747E-003	7	...........	-327.66
	247	0.496	3.45765E-001	1.67549E-007	0.00000E+000	3.46600E-001	1.40229E-003	7	...........	-327.66
	248	0.498	3.55804E-001	1.66894E-007	0.00000E+000	3.56600E-001	1.43505E-003	7	...........	-327.66
	249	0.5	3.65776E-001	1.67032E-007	0.00000E+000	3.66600E-001	1.38850E-003	7	...........	-327.66
	250	0.502	3.75868E-001	1.67980E-007	0.00000E+000	3.76600E-001	1.35574E-003	7	...........	-327.66
	251	0.504	3.85769E-001	1.67394E-007	0.00000E+000	3.86600E-001	1.39022E-003	7	...........	-327.66
	252	0.506	3.95794E-001	1.67756E-007	0.00000E+000	3.96600E-001	1.36264E-003	7	...........	-327.66
	253	0.508	4.05807E-001	1.67308E-007	0.00000E+000	4.06600E-001	1.36436E-003	7	...........	-327.66
	254	0.51	4.15793E-001	1.67170E-007	0.00000E+000	4.16600E-001	1.39712E-003	7	...........	-327.66
	255	0.512	4.25788E-001	1.67549E-007	0.00000E+000	4.26600E-001	1.37815E-003	7	...........	-327.66
	256	0.514	4.35745E-001	1.66808E-007	0.00000E+000	4.36600E-001	1.43160E-003	7	...........	-327.66
	257	0.516	4.45732E-001	1.66635E-007	0.00000E+000	4.46600E-001	1.37298E-003	7	...........	-327.66
	258	0.518	4.55826E-001	1.66825E-007	0.00000E+000	4.56600E-001	1.36609E-003	7	...........	-327.66
	259	0.52	4.65714E-001	1.66894E-007	0.00000E+000	4.66600E-001	1.37126E-003	7	...........	-327.66
	260	0.522	4.75753E-001	1.67239E-007	0.00000E+000	4.76600E-001	1.38160E-003	7	...........	-327.66
	261	0.524	4.85763E-001	1.66825E-007	0.00000E+000	4.86600E-001	1.37815E-003	7	...........	-327.66
	262	0.526	4.95764E-001	1.66963E-007	0.00000E+000	4.96600E-001	1.40574E-003	7	...........	-327.66
	263	0.528	5.05765E-001	1.67515E-007	0.00000E+000	5.06600E-001	1.38160E-003	7	...........	-327.66
	264	0.53	5.15733E-001	1.67566E-007	0.00000E+000	5.16600E-001	1.40747E-003	7	...........	-327.66
	265	0.532	5.25735E-001	1.67480E-007	0.00000E+000	5.26600E-001	1.38505E-003	7	...........	-327.66
	266	0.534	5.35804E-001	1.68808E-007	0.00000E+000	5.36600E-001	1.36436E-003	7	...........	-327.66
	267	0.536	5.45762E-001	1.69239E-007	0.00000E+000	5.46600E-001	1.36436E-003	7	...........	-327.66
	268	0.538	5.55789E-001	1.70377E-007	0.00000E+000	5.56600E-001	1.40057E-003	7	...........	-327.66
	269	0.54	5.65776E-001	1.70998E-007	0.00000E+000	5.66600E-001	1.40747E-003	7	...........	-327.66
	270	0.542	5.75888E-001	1.71826E-007	0.00000E+000	5.76600E-001	1.37988E-003	7	...........	-327.66
	271	0.544	5.85761E-001	1.73360E-007	0.00000E+000	5.86600E-001	1.37988E-003	7	...........	-327.66
	272	0.546	5.95745E-001	1.75429E-007	0.00000E+000	5.96600E-001	1.38333E-003	7	...........	-327.66
CURVE2	TABLE
	Pt	T	Vf	Im	Vu	Sig	Ach	IERange	Over	Temp
	#	s	V vs. Ref.	A	V	V	V	#	bits	deg C
	273	0.548	5.90481E-001	-1.11994E-008	0.00000E+000	5.90000E-001	1.39022E-003	7	...........	-327.66
	274	0.55	5.80773E-001	-6.07234E-008	0.00000E+000	5.80000E-001	1.39540E-003	7	...........	-327.66
	275	0.552	5.70761E-001	-6.82589E-008	0.00000E+000	5.70000E-001	1.40057E-003	7	...........	-327.66
	276	0.554	5.60759E-001	-7.31216E-008	0.00000E+000	5.60000E-001	1.41264E-003	7	...........	-327.66
	277	0.556	5.50788E-001	-7.65531E-008	0.00000E+000	5.50000E-001	1.40574E-003	7	...........	-327.66
	278	0.558	5.40768E-001	-8.20884E-008	0.00000E+000	5.40000E-001	1.36953E-003	7	...........	-327.66
	279	0.56	5.30753E-001	-8.39679E-008	0.00000E+000	5.30000E-001	1.38333E-003	7	...........	-327.66
	280	0.562	5.20752E-001	-8.56751E-008	0.00000E+000	5.20000E-001	1.41953E-003	7	...........	-327.66
	281	0.564	5.10756E-001	-8.77098E-008	0.00000E+000	5.10000E-001	1.37298E-003	7	...........	-327.66
	282	0.566	5.00789E-001	-8.92618E-008	0.00000E+000	5.00000E-001	1.37643E-003	7	...........	-327.66
	283	0.568	4.90744E-001	-9.04516E-008	0.00000E+000	4.90000E-001	1.36091E-003	7	...........	-327.66
	284	0.57	4.80759E-001	-9.20035E-008	0.00000E+000	4.80000E-001	1.37126E-003	7	...........	-327.66
	285	0.572	4.70745E-001	-9.27622E-008	0.00000E+000	4.70000E-001	1.39884E-003	7	...........	-327.66
	286	0.574	4.60751E-001	-9.46935E-008	0.00000E+000	4.60000E-001	1.33678E-003	7	...........	-327.66
	287	0.576	4.50801E-001	-9.57454E-008	0.00000E+000	4.50000E-001	1.38160E-003	7	...........	-327.66
	288	0.578	4.40746E-001	-9.72628E-008	0.00000E+000	4.40000E-001	1.35919E-003	7	...........	-327.66
	289	0.58	4.30765E-001	-9.75732E-008	0.00000E+000	4.30000E-001	1.39884E-003	7	...........	-327.66
	290	0.582	4.20771E-001	-9.88838E-008	0.00000E+000	4.20000E-001	1.37298E-003	7	...........	-327.66
	291	0.584	4.10770E-001	-9.88320E-008	0.00000E+000	4.10000E-001	1.37471E-003	7	...........	-327.66
	292	0.586	4.00782E-001	-9.98494E-008	0.00000E+000	4.00000E-001	1.41781E-003	7	...........	-327.66
	293	0.588	3.90776E-001	-1.00781E-007	0.00000E+000	3.90000E-001	1.40919E-003	7	...........	-327.66
	294	0.59	3.80786E-001	-1.01263E-007	0.00000E+000	3.80000E-001	1.41781E-003	7	...........	-327.66
	295	0.592	3.70780E-001	-1.02195E-007	0.00000E+000	3.70000E-001	1.38160E-003	7	...........	-327.66
	296	0.594	3.60744E-001	-1.03436E-007	0.00000E+000	3.60000E-001	1.37471E-003	7	...........	-327.66
	297	0.596	3.50790E-001	-1.04074E-007	0.00000E+000	3.50000E-001	1.40229E-003	7	...........	-327.66
	298	0.598	3.40789E-001	-1.05316E-007	0.00000E+000	3.40000E-001	1.39022E-003	7	...........	-327.66
	299	0.6	3.30795E-001	-1.05143E-007	0.00000E+000	3.30000E-001	1.43160E-003	7	...........	-327.66
	300	0.602	3.20773E-001	-1.06471E-007	0.00000E+000	3.20000E-001	1.40747E-003	7	...........	-327.66
	301	0.604	3.10781E-001	-1.07402E-007	0.00000E+000	3.10000E-001	1.36781E-003	7	...........	-327.66
	302	0.606	3.00785E-001	-1.08247E-007	0.00000E+000	3.00000E-001	1.39540E-003	7	...........	-327.66
	303	0.608	2.90767E-001	-1.08437E-007	0.00000E+000	2.90000E-001	1.42298E-003	7	...........	-327.66
	304	0.61	2.80743E-001	-1.09747E-007	0.00000E+000	2.80000E-001	1.40574E-003	7	...........	-327.66
	305	0.612	2.70781E-001	-1.10730E-007	0.00000E+000	2.70000E-001	1.41264E-003	7	...........	-327.66
	306	0.614	2.60775E-001	-1.11817E-007	0.00000E+000	2.60000E-001	1.42471E-003	7	...........	-327.66
	307	0.616	2.50800E-001	-1.11868E-007	0.00000E+000	2.50000E-001	1.39195E-003	7	...........	-327.66
	308	0.618	2.40776E-001	-1.12696E-007	0.00000E+000	2.40000E-001	1.39712E-003	7	...........	-327.66
	309	0.62	2.30791E-001	-1.13489E-007	0.00000E+000	2.30000E-001	1.38333E-003	7	...........	-327.66
	310	0.622	2.20793E-001	-1.14869E-007	0.00000E+000	2.20000E-001	1.37126E-003	7	...........	-327.66
	311	0.624	2.10760E-001	-1.14782E-007	0.00000E+000	2.10000E-001	1.39367E-003	7	...........	-327.66
	312	0.626	2.00739E-001	-1.16110E-007	0.00000E+000	2.00000E-001	1.36953E-003	7	...........	-327.66
	313	0.628	1.90826E-001	-1.17041E-007	0.00000E+000	1.90000E-001	1.36091E-003	7	...........	-327.66
	314	0.63	1.80800E-001	-1.18352E-007	0.00000E+000	1.80000E-001	1.37298E-003	7	...........	-327.66
	315	0.632	1.70818E-001	-1.18524E-007	0.00000E+000	1.70000E-001	1.41091E-003	7	...........	-327.66
	316	0.634	1.60782E-001	-1.19869E-007	0.00000E+000	1.60000E-001	1.37815E-003	7	...........	-327.66
	317	0.636	1.50801E-001	-1.20611E-007	0.00000E+000	1.50000E-001	1.39712E-003	7	...........	-327.66
	318	0.638	1.40863E-001	-1.20887E-007	0.00000E+000	1.40000E-001	1.40229E-003	7	...........	-327.66
	319	0.64	1.30795E-001	-1.22008E-007	0.00000E+000	1.30000E-001	1.41436E-003	7	...........	-327.66
	320	0.642	1.20757E-001	-1.23646E-007	0.00000E+000	1.20000E-001	1.45057E-003	7	...........	-327.66
	321	0.644	1.10815E-001	-1.24284E-007	0.00000E+000	1.10000E-001	1.40402E-003	7	...........	-327.66
	322	0.646	1.00792E-001	-1.25594E-007	0.00000E+000	1.00000E-001	1.40229E-003	7	...........	-327.66
	323	0.648	9.08040E-002	-1.25784E-007	0.00000E+000	9.00000E-002	1.37988E-003	7	...........	-327.66
	324	0.65	8.07428E-002	-1.26819E-007	0.00000E+000	8.00000E-002	1.39195E-003	7	...........	-327.66
	325	0.652	7.07989E-002	-1.28043E-007	0.00000E+000	7.00000E-002	1.37815E-003	7	...........	-327.66
	326	0.654	6.08437E-002	-1.28095E-007	0.00000E+000	6.00000E-002	1.35919E-003	7	...........	-327.66
	327	0.656	5.07868E-002	-1.28077E-007	0.00000E+000	5.00000E-002	1.41609E-003	7	...........	-327.66
	328	0.658	4.07170E-002	-1.29233E-007	0.00000E+000	4.00000E-002	1.40402E-003	7	...........	-327.66
	329	0.66	3.08083E-002	-1.30095E-007	0.00000E+000	3.00000E-002	1.39195E-003	7	...........	-327.66
	330	0.662	2.07971E-002	-1.30681E-007	0.00000E+000	2.00000E-002	1.39367E-003	7	...........	-327.66
	331	0.664	1.08247E-002	-1.31371E-007	0.00000E+000	9.99999E-003	1.35919E-003	7	...........	-327.66
	332	0.666	7.40238E-004	-1.31664E-007	0.00000E+000	-1.49012E-008	1.39022E-003	7	...........	-327.66
	333	0.668	-9.21838E-003	-1.32043E-007	0.00000E+000	-1.00000E-002	1.40574E-003	7	...........	-327.66
	334	0.67	-1.91710E-002	-1.33216E-007	0.00000E+000	-2.00000E-002	1.42988E-003	7	...........	-327.66
	335	0.672	-2.92184E-002	-1.32888E-007	0.00000E+000	-3.00000E-002	1.39367E-003	7	...........	-327.66
	336	0.674	-3.91589E-002	-1.34182E-007	0.00000E+000	-4.00000E-002	1.37988E-003	7	...........	-327.66
	337	0.676	-4.92141E-002	-1.35182E-007	0.00000E+000	-5.00000E-002	1.40057E-003	7	...........	-327.66
	338	0.678	-5.91891E-002	-1.35630E-007	0.00000E+000	-6.00000E-002	1.37298E-003	7	...........	-327.66
	339	0.68	-6.91684E-002	-1.35941E-007	0.00000E+000	-7.00000E-002	1.39195E-003	7	...........	-327.66
	340	0.682	-7.92408E-002	-1.37027E-007	0.00000E+000	-8.00000E-002	1.39367E-003	7	...........	-327.66
	341	0.684	-8.91615E-002	-1.37148E-007	0.00000E+000	-9.00000E-002	1.42471E-003	7	...........	-327.66
	342	0.686	-9.91908E-002	-1.37820E-007	0.00000E+000	-1.00000E-001	1.43678E-003	7	...........	-327.66
	343	0.688	-1.09208E-001	-1.37975E-007	0.00000E+000	-1.10000E-001	1.37471E-003	7	...........	-327.66
	344	0.69	-1.19196E-001	-1.39544E-007	0.00000E+000	-1.20000E-001	1.38505E-003	7	...........	-327.66
	345	0.692	-1.29225E-001	-1.39338E-007	0.00000E+000	-1.30000E-001	1.36953E-003	7	...........	-327.66
	346	0.694	-1.39175E-001	-1.40010E-007	0.00000E+000	-1.40000E-001	1.39367E-003	7	...........	-327.66
	347	0.696	-1.49226E-001	-1.40407E-007	0.00000E+000	-1.50000E-001	1.41264E-003	7	...........	-327.66
	348	0.698	-1.59237E-001	-1.41217E-007	0.00000E+000	-1.60000E-001	1.36781E-003	7	...........	-327.66
	349	0.7	-1.69172E-001	-1.41579E-007	0.00000E+000	-1.70000E-001	1.36781E-003	7	...........	-327.66
	350	0.702	-1.79199E-001	-1.42424E-007	0.00000E+000	-1.80000E-001	1.40057E-003	7	...........	-327.66
	351	0.704	-1.89210E-001	-1.42476E-007	0.00000E+000	-1.90000E-001	1.40919E-003	7	...........	-327.66
	352	0.706	-1.99243E-001	-1.43217E-007	0.00000E+000	-2.00000E-001	1.39195E-003	7	...........	-327.66
	353	0.708	-2.09200E-001	-1.43442E-007	0.00000E+000	-2.10000E-001	1.39367E-003	7	...........	-327.66
	354	0.71	-2.19122E-001	-1.44200E-007	0.00000E+000	-2.20000E-001	1.39884E-003	7	...........	-327.66
	355	0.712	-2.29210E-001	-1.44183E-007	0.00000E+000	-2.30000E-001	1.41264E-003	7	...........	-327.66
	356	0.714	-2.39237E-001	-1.45407E-007	0.00000E+000	-2.40000E-001	1.40574E-003	7	...........	-327.66
	357	0.716	-2.49168E-001	-1.45183E-007	0.00000E+000	-2.50000E-001	1.39884E-003	7	...........	-327.66
	358	0.718	-2.59183E-001	-1.46321E-007	0.00000E+000	-2.60000E-001	1.41436E-003	7	...........	-327.66
	359	0.72	-2.69134E-001	-1.45511E-007	0.00000E+000	-2.70000E-001	1.39195E-003	7	...........	-327.66
	360	0.722	-2.79211E-001	-1.47235E-007	0.00000E+000	-2.80000E-001	1.40574E-003	7	...........	-327.66
	361	0.724	-2.89186E-001	-1.47666E-007	0.00000E+000	-2.90000E-001	1.37126E-003	7	...........	-327.66
	362	0.726	-2.99170E-001	-1.48132E-007	0.00000E+000	-3.00000E-001	1.37988E-003	7	...........	-327.66
	363	0.728	-3.09174E-001	-1.48287E-007	0.00000E+000	-3.10000E-001	1.38678E-003	7	...........	-327.66
	364	0.73	-3.19192E-001	-1.49184E-007	0.00000E+000	-3.20000E-001	1.36609E-003	7	...........	-327.66
	365	0.732	-3.29190E-001	-1.49667E-007	0.00000E+000	-3.30000E-001	1.37126E-003	7	...........	-327.66
	366	0.734	-3.39187E-001	-1.50322E-007	0.00000E+000	-3.40000E-001	1.38333E-003	7	...........	-327.66
	367	0.736	-3.49176E-001	-1.50029E-007	0.00000E+000	-3.50000E-001	1.37643E-003	7	...........	-327.66
	368	0.738	-3.59199E-001	-1.51736E-007	0.00000E+000	-3.60000E-001	1.38850E-003	7	...........	-327.66
	369	0.74	-3.69100E-001	-1.52098E-007	0.00000E+000	-3.70000E-001	1.40402E-003	7	...........	-327.66
	370	0.742	-3.79173E-001	-1.53081E-007	0.00000E+000	-3.80000E-001	1.37643E-003	7	...........	-327.66
	371	0.744	-3.89168E-001	-1.53977E-007	0.00000E+000	-3.90000E-001	1.39884E-003	7	...........	-327.66
	372	0.746	-3.99163E-001	-1.54943E-007	0.00000E+000	-4.00000E-001	1.36953E-003	7	...........	-327.66
	373	0.748	-4.09178E-001	-1.55460E-007	0.00000E+000	-4.10000E-001	1.42815E-003	7	...........	-327.66
	374	0.75	-4.19147E-001	-1.56340E-007	0.00000E+000	-4.20000E-001	1.40229E-003	7	...........	-327.66
	375	0.752	-4.29141E-001	-1.56254E-007	0.00000E+000	-4.30000E-001	1.41436E-003	7	...........	-327.66
	376	0.754	-4.39177E-001	-1.57754E-007	0.00000E+000	-4.40000E-001	1.39022E-003	7	...........	-327.66
[...]
	701	1.404	-6.89138E-001	-1.69290E-007	0.00000E+000	-6.90000E-001	1.39540E-003	7	...........	-327.66
	702	1.406	-6.99127E-001	-1.70756E-007	0.00000E+000	-7.00000E-001	1.40057E-003	7	...........	-327.66
	703	1.408	-7.09096E-001	-1.71204E-007	0.00000E+000	-7.10000E-001	1.38678E-003	7	...........	-327.66
	704	1.41	-7.19153E-001	-1.72256E-007	0.00000E+000	-7.20000E-001	1.36436E-003	7	...........	-327.66
	705	1.412	-7.29115E-001	-1.73325E-007	0.00000E+000	-7.30000E-001	1.37126E-003	7	...........	-327.66
	706	1.414	-7.39138E-001	-1.74825E-007	0.00000E+000	-7.40000E-001	1.39884E-003	7	...........	-327.66
	707	1.416	-7.49099E-001	-1.75394E-007	0.00000E+000	-7.50000E-001	1.36436E-003	7	...........	-327.66
	708	1.418	-7.59130E-001	-1.76015E-007	0.00000E+000	-7.60000E-001	1.36953E-003	7	...........	-327.66
	709	1.42	-7.69161E-001	-1.76325E-007	0.00000E+000	-7.70000E-001	1.35747E-003	7	...........	-327.66
	710	1.422	-7.79097E-001	-1.76705E-007	0.00000E+000	-7.80000E-001	1.40402E-003	7	...........	-327.66
	711	1.424	-7.89157E-001	-1.76153E-007	0.00000E+000	-7.90000E-001	1.40229E-003	7	...........	-327.66
	712	1.426	-7.99185E-001	-1.75325E-007	0.00000E+000	-8.00000E-001	1.38333E-003	7	...........	-327.66
	713	1.428	-8.09095E-001	-1.72377E-007	0.00000E+000	-8.10000E-001	1.39367E-003	7	...........	-327.66
	714	1.43	-8.19161E-001	-1.69790E-007	0.00000E+000	-8.20000E-001	1.38505E-003	7	...........	-327.66
	715	1.432	-8.29111E-001	-1.64186E-007	0.00000E+000	-8.30000E-001	1.39540E-003	7	...........	-327.66
	716	1.434	-8.39155E-001	-1.58013E-007	0.00000E+000	-8.40000E-001	1.39540E-003	7	...........	-327.66
	717	1.436	-8.49188E-001	-1.50184E-007	0.00000E+000	-8.50000E-001	1.42643E-003	7	...........	-327.66
	718	1.438	-8.59111E-001	-1.41872E-007	0.00000E+000	-8.60000E-001	1.41609E-003	7	...........	-327.66
	719	1.44	-8.69168E-001	-1.32595E-007	0.00000E+000	-8.70000E-001	1.36781E-003	7	...........	-327.66
	720	1.442	-8.79167E-001	-1.24473E-007	0.00000E+000	-8.80000E-001	1.35402E-003	7	...........	-327.66
	721	1.444	-8.89152E-001	-1.16472E-007	0.00000E+000	-8.90000E-001	1.37126E-003	7	...........	-327.66
	722	1.446	-8.99167E-001	-1.08799E-007	0.00000E+000	-9.00000E-001	1.38505E-003	7	...........	-327.66
	723	1.448	-8.90742E-001	-1.47861E-008	0.00000E+000	-8.90000E-001	1.36091E-003	7	...........	-327.66
	724	1.45	-8.80726E-001	5.82016E-009	0.00000E+000	-8.80000E-001	1.36264E-003	7	...........	-327.66
	725	1.452	-8.70741E-001	2.10291E-008	0.00000E+000	-8.70000E-001	1.43678E-003	7	...........	-327.66
	726	1.454	-8.60679E-001	3.48414E-008	0.00000E+000	-8.60000E-001	1.40919E-003	7	...........	-327.66
	727	1.456	-8.50741E-001	4.58946E-008	0.00000E+000	-8.50000E-001	1.43333E-003	7	...........	-327.66
	728	1.458	-8.40767E-001	5.73789E-008	0.00000E+000	-8.40000E-001	1.41436E-003	7	...........	-327.66
	729	1.46	-8.30624E-001	6.86908E-008	0.00000E+000	-8.30000E-001	1.41091E-003	7	...........	-327.66
	730	1.462	-8.20781E-001	7.83300E-008	0.00000E+000	-8.20000E-001	1.40574E-003	7	...........	-327.66
	731	1.464	-8.10699E-001	8.79176E-008	0.00000E+000	-8.10000E-001	1.41953E-003	7	...........	-327.66
	732	1.466	-8.00725E-001	9.69015E-008	0.00000E+000	-8.00000E-001	1.39712E-003	7	...........	-327.66
	733	1.468	-7.90724E-001	1.03816E-007	0.00000E+000	-7.90000E-001	1.37471E-003	7	...........	-327.66
	734	1.47	-7.80732E-001	1.10593E-007	0.00000E+000	-7.80000E-001	1.41264E-003	7	...........	-327.66
	735	1.472	-7.70739E-001	1.15094E-007	0.00000E+000	-7.70000E-001	1.41436E-003	7	...........	-327.66
	736	1.474	-7.60742E-001	1.19146E-007	0.00000E+000	-7.60000E-001	1.42298E-003	7	...........	-327.66
	737	1.476	-7.50742E-001	1.21629E-007	0.00000E+000	-7.50000E-001	1.42126E-003	7	...........	-327.66
	738	1.478	-7.40769E-001	1.23888E-007	0.00000E+000	-7.40000E-001	1.40574E-003	7	...........	-327.66
	739	1.48	-7.30708E-001	1.27475E-007	0.00000E+000	-7.30000E-001	1.38678E-003	7	...........	-327.66
	740	1.482	-7.20731E-001	1.28078E-007	0.00000E+000	-7.20000E-001	1.39884E-003	7	...........	-327.66
	741	1.484	-7.10701E-001	1.28992E-007	0.00000E+000	-7.10000E-001	1.37643E-003	7	...........	-327.66
	742	1.486	-7.00722E-001	1.29251E-007	0.00000E+000	-7.00000E-001	1.42471E-003	7	...........	-327.66
	743	1.488	-6.90739E-001	1.30337E-007	0.00000E+000	-6.90000E-001	1.37988E-003	7	...........	-327.66
	744	1.49	-6.80687E-001	1.33631E-007	0.00000E+000	-6.80000E-001	1.38333E-003	7	...........	-327.66
	745	1.492	-6.70618E-001	1.34579E-007	0.00000E+000	-6.70000E-001	1.39712E-003	7	...........	-327.66
	746	1.494	-6.60755E-001	1.32320E-007	0.00000E+000	-6.60000E-001	1.41953E-003	7	...........	-327.66
	747	1.496	-6.50715E-001	1.33044E-007	0.00000E+000	-6.50000E-001	1.39884E-003	7	...........	-327.66
	748	1.498	-6.40750E-001	1.35390E-007	0.00000E+000	-6.40000E-001	1.37988E-003	7	...........	-327.66
	749	1.5	-6.30643E-001	1.36303E-007	0.00000E+000	-6.30000E-001	1.38160E-003	7	...........	-327.66
	750	1.502	-6.20734E-001	1.36976E-007	0.00000E+000	-6.20000E-001	1.42471E-003	7	...........	-327.66
	751	1.504	-6.10778E-001	1.35665E-007	0.00000E+000	-6.10000E-001	1.36091E-003	7	...........	-327.66
	752	1.506	-6.00729E-001	1.35959E-007	0.00000E+000	-6.00000E-001	1.36436E-003	7	...........	-327.66
	753	1.508	-5.90710E-001	1.36786E-007	0.00000E+000	-5.90000E-001	1.41264E-003	7	...........	-327.66
	754	1.51	-5.80715E-001	1.37562E-007	0.00000E+000	-5.80000E-001	1.39022E-003	7	...........	-327.66
	755	1.512	-5.70742E-001	1.36062E-007	0.00000E+000	-5.70000E-001	1.39712E-003	7	...........	-327.66
	756	1.514	-5.60781E-001	1.36079E-007	0.00000E+000	-5.60000E-001	1.37126E-003	7	...........	-327.66
	757	1.516	-5.50627E-001	1.36838E-007	0.00000E+000	-5.50000E-001	1.38678E-003	7	...........	-327.66
	758	1.518	-5.40772E-001	1.36959E-007	0.00000E+000	-5.40000E-001	1.40747E-003	7	...........	-327.66
	759	1.52	-5.30727E-001	1.37907E-007	0.00000E+000	-5.30000E-001	1.37815E-003	7	...........	-327.66
	760	1.522	-5.20782E-001	1.36303E-007	0.00000E+000	-5.20000E-001	1.42988E-003	7	...........	-327.66
	761	1.524	-5.10756E-001	1.37079E-007	0.00000E+000	-5.10000E-001	1.39022E-003	7	...........	-327.66
	762	1.526	-5.00687E-001	1.38286E-007	0.00000E+000	-5.00000E-001	1.41781E-003	7	...........	-327.66
	763	1.528	-4.90762E-001	1.38338E-007	0.00000E+000	-4.90000E-001	1.38850E-003	7	...........	-327.66
	764	1.53	-4.80752E-001	1.37717E-007	0.00000E+000	-4.80000E-001	1.39884E-003	7	...........	-327.66
	765	1.532	-4.70718E-001	1.37769E-007	0.00000E+000	-4.70000E-001	1.40919E-003	7	...........	-327.66
	766	1.534	-4.60754E-001	1.39700E-007	0.00000E+000	-4.60000E-001	1.38333E-003	7	...........	-327.66
	767	1.536	-4.50715E-001	1.41063E-007	0.00000E+000	-4.50000E-001	1.41781E-003	7	...........	-327.66
	768	1.538	-4.40756E-001	1.42391E-007	0.00000E+000	-4.40000E-001	1.39540E-003	7	...........	-327.66
	769	1.54	-4.30761E-001	1.42115E-007	0.00000E+000	-4.30000E-001	1.39540E-003	7	...........	-327.66
	770	1.542	-4.20761E-001	1.42977E-007	0.00000E+000	-4.20000E-001	1.39712E-003	7	...........	-327.66
	771	1.544	-4.10771E-001	1.44511E-007	0.00000E+000	-4.10000E-001	1.41781E-003	7	...........	-327.66
	772	1.546	-4.00774E-001	1.45684E-007	0.00000E+000	-4.00000E-001	1.39022E-003	7	...........	-327.66
	773	1.548	-3.90742E-001	1.46632E-007	0.00000E+000	-3.90000E-001	1.40747E-003	7	...........	-327.66
	774	1.55	-3.80781E-001	1.47460E-007	0.00000E+000	-3.80000E-001	1.43160E-003	7	...........	-327.66
	775	1.552	-3.70730E-001	1.49374E-007	0.00000E+000	-3.70000E-001	1.39022E-003	7	...........	-327.66
	776	1.554	-3.60774E-001	1.50667E-007	0.00000E+000	-3.60000E-001	1.34367E-003	7	...........	-327.66
	777	1.556	-3.50778E-001	1.51754E-007	0.00000E+000	-3.50000E-001	1.37643E-003	7	...........	-327.66
	778	1.558	-3.40799E-001	1.51857E-007	0.00000E+000	-3.40000E-001	1.37815E-003	7	...........	-327.66
	779	1.56	-3.30802E-001	1.53789E-007	0.00000E+000	-3.30000E-001	1.36781E-003	7	...........	-327.66
	780	1.562	-3.20797E-001	1.54254E-007	0.00000E+000	-3.20000E-001	1.39884E-003	7	...........	-327.66
	781	1.564	-3.10751E-001	1.55151E-007	0.00000E+000	-3.10000E-001	1.38160E-003	7	...........	-327.66
	782	1.566	-3.00778E-001	1.55599E-007	0.00000E+000	-3.00000E-001	1.39540E-003	7	...........	-327.66
	783	1.568	-2.90776E-001	1.57117E-007	0.00000E+000	-2.90000E-001	1.40402E-003	7	...........	-327.66
	784	1.57	-2.80772E-001	1.58117E-007	0.00000E+000	-2.80000E-001	1.38505E-003	7	...........	-327.66
	785	1.572	-2.70724E-001	1.58944E-007	0.00000E+000	-2.70000E-001	1.39367E-003	7	...........	-327.66
	786	1.574	-2.60781E-001	1.58513E-007	0.00000E+000	-2.60000E-001	1.37298E-003	7	...........	-327.66
	787	1.576	-2.50787E-001	1.59548E-007	0.00000E+000	-2.50000E-001	1.34712E-003	7	...........	-327.66
	788	1.578	-2.40786E-001	1.60272E-007	0.00000E+000	-2.40000E-001	1.36781E-003	7	...........	-327.66
	789	1.58	-2.30795E-001	1.60979E-007	0.00000E+000	-2.30000E-001	1.37298E-003	7	...........	-327.66
	790	1.582	-2.20730E-001	1.61445E-007	0.00000E+000	-2.20000E-001	1.40229E-003	7	...........	-327.66
	791	1.584	-2.10768E-001	1.62428E-007	0.00000E+000	-2.10000E-001	1.37298E-003	7	...........	-327.66
	792	1.586	-2.00798E-001	1.62566E-007	0.00000E+000	-2.00000E-001	1.38333E-003	7	...........	-327.66
	793	1.588	-1.90722E-001	1.63618E-007	0.00000E+000	-1.90000E-001	1.41953E-003	7	...........	-327.66
	794	1.59	-1.80786E-001	1.63100E-007	0.00000E+000	-1.80000E-001	1.38333E-003	7	...........	-327.66
	795	1.592	-1.70786E-001	1.63376E-007	0.00000E+000	-1.70000E-001	1.37988E-003	7	...........	-327.66
	796	1.594	-1.60792E-001	1.64031E-007	0.00000E+000	-1.60000E-001	1.36953E-003	7	...........	-327.66
	797	1.596	-1.50803E-001	1.64583E-007	0.00000E+000	-1.50000E-001	1.40574E-003	7	...........	-327.66
	798	1.598	-1.40770E-001	1.64118E-007	0.00000E+000	-1.40000E-001	1.39712E-003	7	...........	-327.66
	799	1.6	-1.30822E-001	1.64928E-007	0.00000E+000	-1.30000E-001	1.41091E-003	7	...........	-327.66
	800	1.602	-1.20806E-001	1.65307E-007	0.00000E+000	-1.20000E-001	1.35919E-003	7	...........	-327.66
	801	1.604	-1.10805E-001	1.65945E-007	0.00000E+000	-1.10000E-001	1.38850E-003	7	...........	-327.66
	802	1.606	-1.00780E-001	1.65721E-007	0.00000E+000	-1.00000E-001	1.44712E-003	7	...........	-327.66
	803	1.608	-9.07899E-002	1.65428E-007	0.00000E+000	-9.00000E-002	1.41264E-003	7	...........	-327.66
	804	1.61	-8.07830E-002	1.66101E-007	0.00000E+000	-8.00000E-002	1.38160E-003	7	...........	-327.66
	805	1.612	-7.07606E-002	1.65842E-007	0.00000E+000	-7.00000E-002	1.39195E-003	7	...........	-327.66
	806	1.614	-6.07727E-002	1.65118E-007	0.00000E+000	-6.00000E-002	1.39195E-003	7	...........	-327.66
	807	1.616	-5.08141E-002	1.65428E-007	0.00000E+000	-5.00000E-002	1.37643E-003	7	...........	-327.66
	808	1.618	-4.07805E-002	1.65618E-007	0.00000E+000	-4.00000E-002	1.42298E-003	7	...........	-327.66
	809	1.62	-3.07968E-002	1.66704E-007	0.00000E+000	-3.00000E-002	1.36953E-003	7	...........	-327.66
	810	1.622	-2.07882E-002	1.65945E-007	0.00000E+000	-2.00000E-002	1.39712E-003	7	...........	-327.66
	811	1.624	-1.07632E-002	1.65670E-007	0.00000E+000	-1.00000E-002	1.40919E-003	7	...........	-327.66
	812	1.626	-7.85624E-004	1.65428E-007	0.00000E+000	-1.49012E-008	1.39540E-003	7	...........	-327.66
	813	1.628	9.20834E-003	1.65997E-007	0.00000E+000	9.99999E-003	1.39022E-003	7	...........	-327.66
	814	1.63	1.92213E-002	1.64687E-007	0.00000E+000	2.00000E-002	1.39022E-003	7	...........	-327.66
	815	1.632	2.92230E-002	1.64600E-007	0.00000E+000	3.00000E-002	1.45402E-003	7	...........	-327.66
	816	1.634	3.90152E-002	1.65083E-007	0.00000E+000	4.00000E-002	1.41953E-003	7	...........	-327.66
	817	1.636	4.92273E-002	1.65549E-007	0.00000E+000	5.00000E-002	1.37643E-003	7	...........	-327.66
	818	1.638	5.92195E-002	1.65118E-007	0.00000E+000	6.00000E-002	1.36609E-003	7	...........	-327.66
	819	1.64	6.92359E-002	1.64187E-007	0.00000E+000	7.00000E-002	1.38160E-003	7	...........	-327.66
	820	1.642	7.92058E-002	1.65238E-007	0.00000E+000	8.00000E-002	1.35574E-003	7	...........	-327.66
	821	1.644	8.92385E-002	1.64600E-007	0.00000E+000	9.00000E-002	1.41264E-003	7	...........	-327.66
	822	1.646	9.92170E-002	1.64549E-007	0.00000E+000	1.00000E-001	1.41091E-003	7	...........	-327.66
	823	1.648	1.09204E-001	1.64531E-007	0.00000E+000	1.10000E-001	1.42988E-003	7	...........	-327.66
	824	1.65	1.19240E-001	1.64411E-007	0.00000E+000	1.20000E-001	1.40229E-003	7	...........	-327.66
	825	1.652	1.29243E-001	1.65859E-007	0.00000E+000	1.30000E-001	1.37815E-003	7	...........	-327.66
	826	1.654	1.39260E-001	1.65100E-007	0.00000E+000	1.40000E-001	1.39884E-003	7	...........	-327.66
	827	1.656	1.49222E-001	1.65032E-007	0.00000E+000	1.50000E-001	1.38160E-003	7	...........	-327.66
	828	1.658	1.59195E-001	1.65135E-007	0.00000E+000	1.60000E-001	1.39367E-003	7	...........	-327.66
	829	1.66	1.69228E-001	1.65497E-007	0.00000E+000	1.70000E-001	1.39884E-003	7	...........	-327.66
	830	1.662	1.79222E-001	1.64790E-007	0.00000E+000	1.80000E-001	1.41953E-003	7	...........	-327.66
	831	1.664	1.89199E-001	1.65221E-007	0.00000E+000	1.90000E-001	1.40574E-003	7	...........	-327.66
	832	1.666	1.99222E-001	1.65118E-007	0.00000E+000	2.00000E-001	1.40919E-003	7	...........	-327.66
	833	1.668	2.09182E-001	1.66308E-007	0.00000E+000	2.10000E-001	1.37643E-003	7	...........	-327.66
	834	1.67	2.19207E-001	1.65807E-007	0.00000E+000	2.20000E-001	1.36091E-003	7	...........	-327.66
	835	1.672	2.29215E-001	1.65652E-007	0.00000E+000	2.30000E-001	1.42126E-003	7	...........	-327.66
	836	1.674	2.39202E-001	1.65670E-007	0.00000E+000	2.40000E-001	1.38850E-003	7	...........	-327.66
	837	1.676	2.49222E-001	1.65945E-007	0.00000E+000	2.50000E-001	1.41609E-003	7	...........	-327.66
	838	1.678	2.59198E-001	1.65307E-007	0.00000E+000	2.60000E-001	1.41264E-003	7	...........	-327.66
	839	1.68	2.69176E-001	1.65842E-007	0.00000E+000	2.70000E-001	1.40574E-003	7	...........	-327.66
	840	1.682	2.79196E-001	1.65049E-007	0.00000E+000	2.80000E-001	1.45574E-003	7	...........	-327.66
	841	1.684	2.89196E-001	1.65825E-007	0.00000E+000	2.90000E-001	1.39884E-003	7	...........	-327.66
	842	1.686	2.99190E-001	1.65601E-007	0.00000E+000	3.00000E-001	1.43160E-003	7	...........	-327.66
	843	1.688	3.09183E-001	1.66290E-007	0.00000E+000	3.10000E-001	1.36264E-003	7	...........	-327.66
	844	1.69	3.19203E-001	1.65411E-007	0.00000E+000	3.20000E-001	1.34367E-003	7	...........	-327.66
	845	1.692	3.29217E-001	1.66049E-007	0.00000E+000	3.30000E-001	1.37815E-003	7	...........	-327.66
	846	1.694	3.39199E-001	1.65325E-007	0.00000E+000	3.40000E-001	1.40919E-003	7	...........	-327.66
	847	1.696	3.49201E-001	1.65687E-007	0.00000E+000	3.50000E-001	1.39367E-003	7	...........	-327.66
	848	1.698	3.59194E-001	1.65514E-007	0.00000E+000	3.60000E-001	1.41781E-003	7	...........	-327.66
	849	1.7	3.69210E-001	1.66170E-007	0.00000E+000	3.70000E-001	1.37298E-003	7	...........	-327.66
	850	1.702	3.79196E-001	1.65618E-007	0.00000E+000	3.80000E-001	1.36953E-003	7	...........	-327.66
	851	1.704	3.89192E-001	1.65790E-007	0.00000E+000	3.90000E-001	1.38505E-003	7	...........	-327.66
	852	1.706	3.99182E-001	1.66083E-007	0.00000E+000	4.00000E-001	1.38160E-003	7	...........	-327.66
	853	1.708	4.09189E-001	1.65738E-007	0.00000E+000	4.10000E-001	1.39884E-003	7	...........	-327.66
	854	1.71	4.19185E-001	1.65376E-007	0.00000E+000	4.20000E-001	1.42298E-003	7	...........	-327.66
	855	1.712	4.29195E-001	1.65394E-007	0.00000E+000	4.30000E-001	1.37815E-003	7	...........	-327.66
	856	1.714	4.39156E-001	1.65445E-007	0.00000E+000	4.40000E-001	1.39540E-003	7	...........	-327.66
	857	1.716	4.49121E-001	1.65670E-007	0.00000E+000	4.50000E-001	1.35229E-003	7	...........	-327.66
	858	1.718	4.59173E-001	1.65980E-007	0.00000E+000	4.60000E-001	1.39195E-003	7	...........	-327.66
	859	1.72	4.69170E-001	1.66170E-007	0.00000E+000	4.70000E-001	1.44884E-003	7	...........	-327.66
	860	1.722	4.79154E-001	1.66135E-007	0.00000E+000	4.80000E-001	1.38333E-003	7	...........	-327.66
	861	1.724	4.89161E-001	1.66808E-007	0.00000E+000	4.90000E-001	1.37126E-003	7	...........	-327.66
	862	1.726	4.99188E-001	1.66014E-007	0.00000E+000	5.00000E-001	1.39022E-003	7	...........	-327.66
	863	1.728	5.09174E-001	1.67135E-007	0.00000E+000	5.10000E-001	1.41264E-003	7	...........	-327.66
	864	1.73	5.19183E-001	1.67204E-007	0.00000E+000	5.20000E-001	1.43505E-003	7	...........	-327.66
	865	1.732	5.29204E-001	1.67532E-007	0.00000E+000	5.30000E-001	1.41781E-003	7	...........	-327.66
	866	1.734	5.39197E-001	1.68360E-007	0.00000E+000	5.40000E-001	1.37471E-003	7	...........	-327.66
	867	1.736	5.49179E-001	1.69515E-007	0.00000E+000	5.50000E-001	1.39367E-003	7	...........	-327.66
	868	1.738	5.59174E-001	1.70929E-007	0.00000E+000	5.60000E-001	1.37815E-003	7	...........	-327.66
	869	1.74	5.69165E-001	1.71532E-007	0.00000E+000	5.70000E-001	1.39712E-003	7	...........	-327.66
	870	1.742	5.79191E-001	1.72964E-007	0.00000E+000	5.80000E-001	1.40747E-003	7	...........	-327.66
	871	1.744	5.89155E-001	1.74136E-007	0.00000E+000	5.90000E-001	1.43505E-003	7	...........	-327.66
	872	1.746	5.99179E-001	1.76430E-007	0.00000E+000	6.00000E-001	1.39540E-003	7	...........	-327.66
CURVE4	TABLE
	Pt	T	Vf	Im	Vu	Sig	Ach	IERange	Over	Temp
	#	s	V vs. Ref.	A	V	V	V	#	bits	deg C
	873	1.748	5.90743E-001	-4.84286E-008	0.00000E+000	5.90000E-001	1.38850E-003	7	...........	-327.66
	874	1.75	5.80771E-001	-6.21029E-008	0.00000E+000	5.80000E-001	1.40229E-003	7	...........	-327.66
	875	1.752	5.70745E-001	-6.92935E-008	0.00000E+000	5.70000E-001	1.39367E-003	7	...........	-327.66
	876	1.754	5.60744E-001	-7.35700E-008	0.00000E+000	5.60000E-001	1.37471E-003	7	...........	-327.66
	877	1.756	5.50774E-001	-7.79499E-008	0.00000E+000	5.50000E-001	1.35574E-003	7	...........	-327.66
	878	1.758	5.40766E-001	-8.25712E-008	0.00000E+000	5.40000E-001	1.33505E-003	7	...........	-327.66
	879	1.76	5.30738E-001	-8.49336E-008	0.00000E+000	5.30000E-001	1.41091E-003	7	...........	-327.66
	880	1.762	5.20743E-001	-8.65717E-008	0.00000E+000	5.20000E-001	1.35747E-003	7	...........	-327.66
	881	1.764	5.10766E-001	-8.86755E-008	0.00000E+000	5.10000E-001	1.39540E-003	7	...........	-327.66
	882	1.766	5.00772E-001	-8.97446E-008	0.00000E+000	5.00000E-001	1.38160E-003	7	...........	-327.66
	883	1.768	4.90733E-001	-9.12275E-008	0.00000E+000	4.90000E-001	1.40574E-003	7	...........	-327.66
	884	1.77	4.80742E-001	-9.20897E-008	0.00000E+000	4.80000E-001	1.39022E-003	7	...........	-327.66
	885	1.772	4.70730E-001	-9.38141E-008	0.00000E+000	4.70000E-001	1.35402E-003	7	...........	-327.66
	886	1.774	4.60763E-001	-9.46246E-008	0.00000E+000	4.60000E-001	1.41264E-003	7	...........	-327.66
	887	1.776	4.50820E-001	-9.60041E-008	0.00000E+000	4.50000E-001	1.39022E-003	7	...........	-327.66
	888	1.778	4.40750E-001	-9.72801E-008	0.00000E+000	4.40000E-001	1.39367E-003	7	...........	-327.66
	889	1.78	4.30755E-001	-9.79698E-008	0.00000E+000	4.30000E-001	1.37643E-003	7	...........	-327.66
	890	1.782	4.20771E-001	-9.91424E-008	0.00000E+000	4.20000E-001	1.40057E-003	7	...........	-327.66
	891	1.784	4.10751E-001	-9.95045E-008	0.00000E+000	4.10000E-001	1.37298E-003	7	...........	-327.66
	892	1.786	4.00777E-001	-9.98839E-008	0.00000E+000	4.00000E-001	1.41609E-003	7	...........	-327.66
	893	1.788	3.90763E-001	-1.01143E-007	0.00000E+000	3.90000E-001	1.41781E-003	7	...........	-327.66
	894	1.79	3.80771E-001	-1.01832E-007	0.00000E+000	3.80000E-001	1.42298E-003	7	...........	-327.66
	895	1.792	3.70763E-001	-1.02246E-007	0.00000E+000	3.70000E-001	1.38160E-003	7	...........	-327.66
	896	1.794	3.60746E-001	-1.03850E-007	0.00000E+000	3.60000E-001	1.33160E-003	7	...........	-327.66
	897	1.796	3.50786E-001	-1.04678E-007	0.00000E+000	3.50000E-001	1.39022E-003	7	...........	-327.66
	898	1.798	3.40797E-001	-1.05298E-007	0.00000E+000	3.40000E-001	1.37298E-003	7	...........	-327.66
	899	1.8	3.30779E-001	-1.06126E-007	0.00000E+000	3.30000E-001	1.43160E-003	7	...........	-327.66
	900	1.802	3.20759E-001	-1.06695E-007	0.00000E+000	3.20000E-001	1.39195E-003	7	...........	-327.66