File: Test_Data_Files/20250509_IF0011_IIA42_PBSair_E01_C_CV50_PEDOT.DTA
EXPLAIN
TAG	CV
TITLE	LABEL	CV50	Test Identifier
DATE	LABEL	5/9/2025	Date
TIME	LABEL	16:20:31	Time
NOTES	NOTES	1	Notes...

PSTAT	PSTAT	REF600P-43058	Potentiostat
VINIT	POTEN	0.00000E+000	T	Initial E (V)
VLIMIT1	POTEN	-9.00000E-001	F	Scan Limit 1 (V)
VLIMIT2	POTEN	6.00000E-001	F	Scan Limit 2 (V)
VFINAL	POTEN	0.00000E+000	T	Final E (V)
SCANRATE	QUANT	4.99999E+001	Scan Rate (mV/s)
STEPSIZE	QUANT	1.00000E+001	Step Size (mV)
CYCLES	IQUANT	3	Cycles (#)
IMODE	SELECTOR	1	I/E Range Mode
IRANGE	QUANT	1.00000E-003	Max Current (mA)
AREA	QUANT	1.00000E+000	Sample Area (cm^2)
EQDELAY	QUANT	5.00000E+000	Equil. Time (s)
IRCOMP	SELECTOR	0	IRComp
PFCOR	QUANT	5.00000E+001	PF Corr. (ohm)
SAMPLINGMODE	SELECTOR	2	Sampling Mode
EOC	QUANT	0.3165924	Open Circuit (V)
ELECTRODETYPE	SELECTOR	0	Electrode Type
STRIPPING	TOGGLE	F	Used for Stripping
SEQUENCER	TOGGLE	TRUE	Run as Sequence
PSTATMODEL	IQUANT	7	Pstat Model
PSTATSECTION	LABEL	REF600P-43058	Pstat Section
PSTATSERIALNO	LABEL	43058	Pstat Serial Number
CTRLMODE	IQUANT	1	Control Mode
ELECTROMETER	IQUANT	0	RE=0 or CS=1
IESTAB	IQUANT	2	I/E Stability
CASPEED	IQUANT	4	Control Amp Speed
CONVENTION	IQUANT	1	Current Convention
ICHRANGE	IQUANT	2	Ich Range
ICHRANGEMODE	TOGGLE	F	Ich Auto Range
ICHOFFSETENABLE	TOGGLE	F	Ich Offset Enable
ICHOFFSET	QUANT	0	Ich Offset (V)
ICHFILTER	IQUANT	2	Ich Filter
VCHRANGE	IQUANT	2	Vch Range
VCHRANGEMODE	TOGGLE	F	Vch Auto Range
VCHOFFSETENABLE	TOGGLE	F	Vch Offset Enable
VCHOFFSET	QUANT	0	Vch Offset (V)
VCHFILTER	IQUANT	2	Vch Filter
ACHRANGE	IQUANT	2	Ach Range
ACHOFFSETENABLE	TOGGLE	F	Ach Offset Enable
ACHOFFSET	QUANT	0	Ach Offset (V)
ACHFILTER	IQUANT	1	Ach Filter
IERANGELOWERLIMIT	IQUANT	1	I/E Range Lower Limit
IERANGEMODE	TOGGLE	F	I/E AutoRange
IERANGE	IQUANT	6	I/E Range
POSFEEDENABLE	TOGGLE	F	Positive Feedback IR Comp
POSFEEDRESISTANCE	QUANT	0	Positive Feedback Resistance (ohm)
ACHSELECT	IQUANT	4	Ach Select
SENSECABLEID	IQUANT	7	Sense Cable ID
PWRCABLEID	IQUANT	7	Power Cable ID
DCCALDATE	LABEL	5/8/2025	DC Calibration Date
ACCALDATE	LABEL	5/8/2025	AC Calibration Date
THERMOSELECT	IQUANT	1	Thermo Select
FRAMEWORKVERSION	LABEL	7.10.4	Framework Version
INSTRUMENTVERSION	LABEL	5.01	Instrument Version
COMMVERSION	LABEL	5.10	Communications Version
CPUPLDVERSION	LABEL	6.00	CPU PLD Version
CTRLPLDVERSION	LABEL	3.21	CTRL PLD Version
PSTATPLDVERSION	LABEL	0.00	PSTAT PLD Version
CURVE1	TABLE
	Pt	T	Vf	Im	Vu	Sig	Ach	IERange	Over	Temp
	#	s	V vs. Ref.	A	V	V	V	#	bits	deg C
	0	0.2	3.16535E-001	7.67800E-010	0.00000E+000	3.16600E-001	1.39011E-003	6	...........	-327.66
	1	0.4	3.06522E-001	-2.00579E-010	0.00000E+000	3.06600E-001	1.38889E-003	6	...........	-327.66
	2	0.6	2.96790E-001	-1.51339E-010	0.00000E+000	2.96600E-001	1.39561E-003	6	...........	-327.66
	3	0.8	2.86494E-001	-1.66396E-010	0.00000E+000	2.86600E-001	1.39329E-003	6	...........	-327.66
	4	1	2.76548E-001	-2.05848E-010	0.00000E+000	2.76600E-001	1.39343E-003	6	...........	-327.66
	5	1.2	2.66530E-001	-2.68944E-010	0.00000E+000	2.66600E-001	1.39524E-003	6	...........	-327.66
	6	1.4	2.56643E-001	-1.91908E-010	0.00000E+000	2.56600E-001	1.38607E-003	6	...........	-327.66
	7	1.6	2.46567E-001	-1.57993E-010	0.00000E+000	2.46600E-001	1.38907E-003	6	...........	-327.66
	8	1.8	2.36542E-001	-2.55054E-010	0.00000E+000	2.36600E-001	1.39454E-003	6	...........	-327.66
	9	2	2.26606E-001	-2.72862E-010	0.00000E+000	2.26600E-001	1.38827E-003	6	...........	-327.66
	10	2.2	2.16613E-001	-1.66713E-010	0.00000E+000	2.16600E-001	1.39429E-003	6	...........	-327.66
	11	2.4	2.06527E-001	-2.42215E-010	0.00000E+000	2.06600E-001	1.38637E-003	6	...........	-327.66
	12	2.6	1.96622E-001	-2.49135E-010	0.00000E+000	1.96600E-001	1.39357E-003	6	...........	-327.66
	13	2.8	1.86592E-001	-3.21768E-010	0.00000E+000	1.86600E-001	1.39584E-003	6	...........	-327.66
	14	3	1.76723E-001	-2.92238E-010	0.00000E+000	1.76600E-001	1.39494E-003	6	...........	-327.66
	15	3.2	1.66655E-001	-2.90820E-010	0.00000E+000	1.66600E-001	1.38502E-003	6	...........	-327.66
	16	3.4	1.56594E-001	-3.32706E-010	0.00000E+000	1.56600E-001	1.39097E-003	6	...........	-327.66
	17	3.6	1.46653E-001	-3.70540E-010	0.00000E+000	1.46600E-001	1.38691E-003	6	...........	-327.66
	18	3.8	1.36703E-001	-3.22151E-010	0.00000E+000	1.36600E-001	1.39161E-003	6	...........	-327.66
	19	4	1.26624E-001	-3.35041E-010	0.00000E+000	1.26600E-001	1.39276E-003	6	...........	-327.66
	20	4.2	1.16506E-001	-3.75376E-010	0.00000E+000	1.16600E-001	1.39689E-003	6	...........	-327.66
	21	4.4	1.06606E-001	-4.36387E-010	0.00000E+000	1.06600E-001	1.39129E-003	6	...........	-327.66
	22	4.6	9.67563E-002	-3.96819E-010	0.00000E+000	9.66000E-002	1.39156E-003	6	...........	-327.66
	23	4.8	8.65776E-002	-3.96202E-010	0.00000E+000	8.66000E-002	1.38182E-003	6	...........	-327.66
	24	5	7.65947E-002	-4.37488E-010	0.00000E+000	7.66000E-002	1.38851E-003	6	...........	-327.66
	25	5.2	6.66013E-002	-4.46826E-010	0.00000E+000	6.66000E-002	1.38489E-003	6	...........	-327.66
	26	5.4	5.66879E-002	-4.38205E-010	0.00000E+000	5.66000E-002	1.39448E-003	6	...........	-327.66
	27	5.6	4.66462E-002	-4.48893E-010	0.00000E+000	4.66000E-002	1.39296E-003	6	...........	-327.66
	28	5.8	3.65934E-002	-5.01601E-010	0.00000E+000	3.66000E-002	1.39609E-003	6	...........	-327.66
	29	6	2.66248E-002	-5.43837E-010	0.00000E+000	2.66000E-002	1.38986E-003	6	...........	-327.66
	30	6.2	1.67164E-002	-5.56509E-010	0.00000E+000	1.66000E-002	1.39282E-003	6	...........	-327.66
	31	6.4	6.58368E-003	-5.54208E-010	0.00000E+000	6.59999E-003	1.38125E-003	6	...........	-327.66
	32	6.6	-3.42929E-003	-5.53041E-010	0.00000E+000	-3.40001E-003	1.38215E-003	6	...........	-327.66
	33	6.8	-1.34117E-002	-6.33278E-010	0.00000E+000	-1.34000E-002	1.39471E-003	6	...........	-327.66
	34	7	-2.32699E-002	-5.80170E-010	0.00000E+000	-2.34000E-002	1.39371E-003	6	...........	-327.66
	35	7.2	-3.34395E-002	-6.14386E-010	0.00000E+000	-3.34000E-002	1.38909E-003	6	...........	-327.66
	36	7.4	-4.34489E-002	-6.43266E-010	0.00000E+000	-4.34000E-002	1.39229E-003	6	...........	-327.66
	37	7.6	-5.34088E-002	-7.09580E-010	0.00000E+000	-5.34000E-002	1.39214E-003	6	...........	-327.66
	38	7.8	-6.32349E-002	-6.86286E-010	0.00000E+000	-6.34000E-002	1.40069E-003	6	...........	-327.66
	39	8	-7.34562E-002	-6.59757E-010	0.00000E+000	-7.34000E-002	1.38646E-003	6	...........	-327.66
	40	8.2	-8.34482E-002	-7.01660E-010	0.00000E+000	-8.34000E-002	1.39057E-003	6	...........	-327.66
	41	8.4	-9.34413E-002	-7.69124E-010	0.00000E+000	-9.34000E-002	1.39352E-003	6	...........	-327.66
	42	8.6	-1.03307E-001	-7.13782E-010	0.00000E+000	-1.03400E-001	1.39553E-003	6	...........	-327.66
	43	8.8	-1.13445E-001	-6.76398E-010	0.00000E+000	-1.13400E-001	1.39676E-003	6	...........	-327.66
	44	9	-1.23470E-001	-7.76861E-010	0.00000E+000	-1.23400E-001	1.39416E-003	6	...........	-327.66
	45	9.2	-1.33425E-001	-8.45543E-010	0.00000E+000	-1.33400E-001	1.39017E-003	6	...........	-327.66
	46	9.4	-1.43385E-001	-7.93252E-010	0.00000E+000	-1.43400E-001	1.38974E-003	6	...........	-327.66
	47	9.6	-1.53471E-001	-8.59849E-010	0.00000E+000	-1.53400E-001	1.38612E-003	6	...........	-327.66
	48	9.8	-1.63405E-001	-8.62334E-010	0.00000E+000	-1.63400E-001	1.38809E-003	6	...........	-327.66
	49	10	-1.73457E-001	-9.36051E-010	0.00000E+000	-1.73400E-001	1.39296E-003	6	...........	-327.66
	50	10.2	-1.83275E-001	-9.37051E-010	0.00000E+000	-1.83400E-001	1.39116E-003	6	...........	-327.66
	51	10.4	-1.93437E-001	-9.56644E-010	0.00000E+000	-1.93400E-001	1.39514E-003	6	...........	-327.66
	52	10.6	-2.03470E-001	-9.44605E-010	0.00000E+000	-2.03400E-001	1.39504E-003	6	...........	-327.66
	53	10.8	-2.13392E-001	-1.01989E-009	0.00000E+000	-2.13400E-001	1.39536E-003	6	...........	-327.66
	54	11	-2.23297E-001	-1.02176E-009	0.00000E+000	-2.23400E-001	1.39431E-003	6	...........	-327.66
	55	11.2	-2.33393E-001	-1.05159E-009	0.00000E+000	-2.33400E-001	1.38144E-003	6	...........	-327.66
	56	11.4	-2.43394E-001	-1.10096E-009	0.00000E+000	-2.43400E-001	1.39676E-003	6	...........	-327.66
	57	11.6	-2.53435E-001	-1.14706E-009	0.00000E+000	-2.53400E-001	1.39444E-003	6	...........	-327.66
	58	11.8	-2.63243E-001	-1.21866E-009	0.00000E+000	-2.63400E-001	1.39347E-003	6	...........	-327.66
	59	12	-2.73389E-001	-1.26619E-009	0.00000E+000	-2.73400E-001	1.39264E-003	6	...........	-327.66
	60	12.2	-2.83450E-001	-1.31924E-009	0.00000E+000	-2.83400E-001	1.39849E-003	6	...........	-327.66
	61	12.4	-2.93386E-001	-1.46006E-009	0.00000E+000	-2.93400E-001	1.38779E-003	6	...........	-327.66
	62	12.6	-3.03293E-001	-1.54488E-009	0.00000E+000	-3.03400E-001	1.39337E-003	6	...........	-327.66
	63	12.8	-3.13404E-001	-1.66659E-009	0.00000E+000	-3.13400E-001	1.38506E-003	6	...........	-327.66
	64	13	-3.23380E-001	-1.74657E-009	0.00000E+000	-3.23400E-001	1.39299E-003	6	...........	-327.66
	65	13.2	-3.33413E-001	-1.99200E-009	0.00000E+000	-3.33400E-001	1.39079E-003	6	...........	-327.66
	66	13.4	-3.43239E-001	-2.10436E-009	0.00000E+000	-3.43400E-001	1.39261E-003	6	...........	-327.66
	67	13.6	-3.53400E-001	-2.38800E-009	0.00000E+000	-3.53400E-001	1.39187E-003	6	...........	-327.66
	68	13.8	-3.63466E-001	-2.65754E-009	0.00000E+000	-3.63400E-001	1.39976E-003	6	...........	-327.66
	69	14	-3.73327E-001	-3.05409E-009	0.00000E+000	-3.73400E-001	1.39749E-003	6	...........	-327.66
	70	14.2	-3.83342E-001	-3.42205E-009	0.00000E+000	-3.83400E-001	1.39172E-003	6	...........	-327.66
	71	14.4	-3.93357E-001	-3.81468E-009	0.00000E+000	-3.93400E-001	1.38909E-003	6	...........	-327.66
	72	14.6	-4.03348E-001	-4.22982E-009	0.00000E+000	-4.03400E-001	1.39201E-003	6	...........	-327.66
	73	14.8	-4.13356E-001	-4.66625E-009	0.00000E+000	-4.13400E-001	1.38571E-003	6	...........	-327.66
	74	15	-4.23262E-001	-5.09648E-009	0.00000E+000	-4.23400E-001	1.39454E-003	6	...........	-327.66
	75	15.2	-4.33366E-001	-5.62424E-009	0.00000E+000	-4.33400E-001	1.39281E-003	6	...........	-327.66
	76	15.4	-4.43303E-001	-6.07363E-009	0.00000E+000	-4.43400E-001	1.39139E-003	6	...........	-327.66
	77	15.6	-4.53328E-001	-6.50183E-009	0.00000E+000	-4.53400E-001	1.39119E-003	6	...........	-327.66
	78	15.8	-4.63223E-001	-6.87687E-009	0.00000E+000	-4.63400E-001	1.39476E-003	6	...........	-327.66
	79	16	-4.73346E-001	-7.19845E-009	0.00000E+000	-4.73400E-001	1.38814E-003	6	...........	-327.66
	80	16.2	-4.83364E-001	-7.50579E-009	0.00000E+000	-4.83400E-001	1.38961E-003	6	...........	-327.66
	81	16.4	-4.93342E-001	-7.78679E-009	0.00000E+000	-4.93400E-001	1.39079E-003	6	...........	-327.66
	82	16.6	-5.03245E-001	-8.02270E-009	0.00000E+000	-5.03400E-001	1.39684E-003	6	...........	-327.66
	83	16.8	-5.13374E-001	-8.25682E-009	0.00000E+000	-5.13400E-001	1.40038E-003	6	...........	-327.66
	84	17	-5.23202E-001	-8.44564E-009	0.00000E+000	-5.23400E-001	1.39829E-003	6	...........	-327.66
	85	17.2	-5.33362E-001	-8.69166E-009	0.00000E+000	-5.33400E-001	1.40158E-003	6	...........	-327.66
	86	17.4	-5.43278E-001	-8.74533E-009	0.00000E+000	-5.43400E-001	1.39544E-003	6	...........	-327.66
	87	17.6	-5.53326E-001	-8.90284E-009	0.00000E+000	-5.53400E-001	1.39006E-003	6	...........	-327.66
	88	17.8	-5.63332E-001	-9.01589E-009	0.00000E+000	-5.63400E-001	1.39321E-003	6	...........	-327.66
	89	18	-5.73369E-001	-9.13179E-009	0.00000E+000	-5.73400E-001	1.39171E-003	6	...........	-327.66
	90	18.2	-5.83275E-001	-9.24503E-009	0.00000E+000	-5.83400E-001	1.39669E-003	6	...........	-327.66
	91	18.4	-5.93357E-001	-9.36393E-009	0.00000E+000	-5.93400E-001	1.39723E-003	6	...........	-327.66
	92	18.6	-6.03253E-001	-9.49236E-009	0.00000E+000	-6.03400E-001	1.39918E-003	6	...........	-327.66
	93	18.8	-6.13360E-001	-9.68783E-009	0.00000E+000	-6.13400E-001	1.39694E-003	6	...........	-327.66
	94	19	-6.23210E-001	-9.88886E-009	0.00000E+000	-6.23400E-001	1.39909E-003	6	...........	-327.66
	95	19.2	-6.33281E-001	-1.00428E-008	0.00000E+000	-6.33400E-001	1.38897E-003	6	...........	-327.66
	96	19.4	-6.43298E-001	-1.02237E-008	0.00000E+000	-6.43400E-001	1.39137E-003	6	...........	-327.66
	97	19.6	-6.53274E-001	-1.05000E-008	0.00000E+000	-6.53400E-001	1.40431E-003	6	...........	-327.66
	98	19.8	-6.63216E-001	-1.07117E-008	0.00000E+000	-6.63400E-001	1.38749E-003	6	...........	-327.66
	99	20	-6.73282E-001	-1.09209E-008	0.00000E+000	-6.73400E-001	1.39419E-003	6	...........	-327.66
	100	20.2	-6.83290E-001	-1.11450E-008	0.00000E+000	-6.83400E-001	1.39841E-003	6	...........	-327.66
	101	20.4	-6.93280E-001	-1.14597E-008	0.00000E+000	-6.93400E-001	1.39753E-003	6	...........	-327.66
	102	20.6	-7.03294E-001	-1.17015E-008	0.00000E+000	-7.03400E-001	1.39321E-003	6	...........	-327.66
	103	20.8	-7.13309E-001	-1.20545E-008	0.00000E+000	-7.13400E-001	1.38939E-003	6	...........	-327.66
	104	21	-7.23291E-001	-1.23246E-008	0.00000E+000	-7.23400E-001	1.38827E-003	6	...........	-327.66
	105	21.2	-7.33306E-001	-1.26453E-008	0.00000E+000	-7.33400E-001	1.38784E-003	6	...........	-327.66
	106	21.4	-7.43243E-001	-1.29464E-008	0.00000E+000	-7.43400E-001	1.39326E-003	6	...........	-327.66
	107	21.6	-7.53297E-001	-1.31908E-008	0.00000E+000	-7.53400E-001	1.38644E-003	6	...........	-327.66
	108	21.8	-7.63362E-001	-1.34475E-008	0.00000E+000	-7.63400E-001	1.40430E-003	6	...........	-327.66
	109	22	-7.73259E-001	-1.37039E-008	0.00000E+000	-7.73400E-001	1.39764E-003	6	...........	-327.66
	110	22.2	-7.83242E-001	-1.38976E-008	0.00000E+000	-7.83400E-001	1.39106E-003	6	...........	-327.66
	111	22.4	-7.93286E-001	-1.41147E-008	0.00000E+000	-7.93400E-001	1.38342E-003	6	...........	-327.66
	112	22.6	-8.03404E-001	-1.43697E-008	0.00000E+000	-8.03400E-001	1.39466E-003	6	...........	-327.66
	113	22.8	-8.13323E-001	-1.46436E-008	0.00000E+000	-8.13400E-001	1.38916E-003	6	...........	-327.66
	114	23	-8.23276E-001	-1.48579E-008	0.00000E+000	-8.23400E-001	1.38536E-003	6	...........	-327.66
	115	23.2	-8.33307E-001	-1.51027E-008	0.00000E+000	-8.33400E-001	1.39616E-003	6	...........	-327.66
	116	23.4	-8.43368E-001	-1.53042E-008	0.00000E+000	-8.43400E-001	1.39779E-003	6	...........	-327.66
	117	23.6	-8.53297E-001	-1.55609E-008	0.00000E+000	-8.53400E-001	1.39548E-003	6	...........	-327.66
	118	23.8	-8.63245E-001	-1.57093E-008	0.00000E+000	-8.63400E-001	1.39012E-003	6	...........	-327.66
	119	24	-8.73313E-001	-1.58710E-008	0.00000E+000	-8.73400E-001	1.38364E-003	6	...........	-327.66
	120	24.2	-8.83286E-001	-1.60634E-008	0.00000E+000	-8.83400E-001	1.39107E-003	6	...........	-327.66
	121	24.4	-8.93337E-001	-1.62724E-008	0.00000E+000	-8.93400E-001	1.38697E-003	6	...........	-327.66
	122	24.6	-9.03218E-001	-1.64300E-008	0.00000E+000	-9.03400E-001	1.39691E-003	6	...........	-327.66
	123	24.8	-8.93329E-001	-1.44021E-008	0.00000E+000	-8.93400E-001	1.38874E-003	6	...........	-327.66
	124	25	-8.83318E-001	-1.36431E-008	0.00000E+000	-8.83400E-001	1.39476E-003	6	...........	-327.66
	125	25.2	-8.73332E-001	-1.29785E-008	0.00000E+000	-8.73400E-001	1.38696E-003	6	...........	-327.66
	126	25.4	-8.63251E-001	-1.24487E-008	0.00000E+000	-8.63400E-001	1.39506E-003	6	...........	-327.66
	127	25.6	-8.53300E-001	-1.20498E-008	0.00000E+000	-8.53400E-001	1.39903E-003	6	...........	-327.66
	128	25.8	-8.43368E-001	-1.16532E-008	0.00000E+000	-8.43400E-001	1.39514E-003	6	...........	-327.66
	129	26	-8.33308E-001	-1.12220E-008	0.00000E+000	-8.33400E-001	1.39317E-003	6	...........	-327.66
	130	26.2	-8.23255E-001	-1.08444E-008	0.00000E+000	-8.23400E-001	1.39136E-003	6	...........	-327.66
	131	26.4	-8.13335E-001	-1.05081E-008	0.00000E+000	-8.13400E-001	1.39384E-003	6	...........	-327.66
	132	26.6	-8.03280E-001	-1.01377E-008	0.00000E+000	-8.03400E-001	1.39094E-003	6	...........	-327.66
	133	26.8	-7.93326E-001	-9.80073E-009	0.00000E+000	-7.93400E-001	1.38541E-003	6	...........	-327.66
	134	27	-7.83257E-001	-9.40884E-009	0.00000E+000	-7.83400E-001	1.39429E-003	6	...........	-327.66
	135	27.2	-7.73306E-001	-9.07428E-009	0.00000E+000	-7.73400E-001	1.40251E-003	6	...........	-327.66
	136	27.4	-7.63334E-001	-8.86427E-009	0.00000E+000	-7.63400E-001	1.40356E-003	6	...........	-327.66
	137	27.6	-7.53341E-001	-8.60081E-009	0.00000E+000	-7.53400E-001	1.39791E-003	6	...........	-327.66
	138	27.8	-7.43224E-001	-8.42160E-009	0.00000E+000	-7.43400E-001	1.40189E-003	6	...........	-327.66
	139	28	-7.33306E-001	-8.24040E-009	0.00000E+000	-7.33400E-001	1.39954E-003	6	...........	-327.66
	140	28.2	-7.23350E-001	-7.97963E-009	0.00000E+000	-7.23400E-001	1.39901E-003	6	...........	-327.66
	141	28.4	-7.13309E-001	-7.72551E-009	0.00000E+000	-7.13400E-001	1.39104E-003	6	...........	-327.66
	142	28.6	-7.03233E-001	-7.56625E-009	0.00000E+000	-7.03400E-001	1.39958E-003	6	...........	-327.66
	143	28.8	-6.93314E-001	-7.35149E-009	0.00000E+000	-6.93400E-001	1.40136E-003	6	...........	-327.66
	144	29	-6.83251E-001	-7.11775E-009	0.00000E+000	-6.83400E-001	1.40334E-003	6	...........	-327.66
	145	29.2	-6.73339E-001	-6.89915E-009	0.00000E+000	-6.73400E-001	1.40339E-003	6	...........	-327.66
	146	29.4	-6.63240E-001	-6.72076E-009	0.00000E+000	-6.63400E-001	1.39848E-003	6	...........	-327.66
	147	29.6	-6.53290E-001	-6.60128E-009	0.00000E+000	-6.53400E-001	1.40006E-003	6	...........	-327.66
	148	29.8	-6.43312E-001	-6.35661E-009	0.00000E+000	-6.43400E-001	1.39531E-003	6	...........	-327.66
	149	30	-6.33280E-001	-6.17852E-009	0.00000E+000	-6.33400E-001	1.39584E-003	6	...........	-327.66
	150	30.2	-6.23211E-001	-6.05618E-009	0.00000E+000	-6.23400E-001	1.40169E-003	6	...........	-327.66
	151	30.4	-6.13374E-001	-5.86987E-009	0.00000E+000	-6.13400E-001	1.39649E-003	6	...........	-327.66
	152	30.6	-6.03289E-001	-5.72897E-009	0.00000E+000	-6.03400E-001	1.40296E-003	6	...........	-327.66
	153	30.8	-5.93346E-001	-5.55244E-009	0.00000E+000	-5.93400E-001	1.39898E-003	6	...........	-327.66
	154	31	-5.83262E-001	-5.41776E-009	0.00000E+000	-5.83400E-001	1.40660E-003	6	...........	-327.66
	155	31.2	-5.73326E-001	-5.26084E-009	0.00000E+000	-5.73400E-001	1.39601E-003	6	...........	-327.66
	156	31.4	-5.63350E-001	-5.14909E-009	0.00000E+000	-5.63400E-001	1.39838E-003	6	...........	-327.66
	157	31.6	-5.53359E-001	-5.00486E-009	0.00000E+000	-5.53400E-001	1.39044E-003	6	...........	-327.66
	158	31.8	-5.43243E-001	-4.84969E-009	0.00000E+000	-5.43400E-001	1.39904E-003	6	...........	-327.66
	159	32	-5.33373E-001	-4.72691E-009	0.00000E+000	-5.33400E-001	1.39868E-003	6	...........	-327.66
	160	32.2	-5.23215E-001	-4.47596E-009	0.00000E+000	-5.23400E-001	1.39633E-003	6	...........	-327.66
	161	32.4	-5.13378E-001	-4.29605E-009	0.00000E+000	-5.13400E-001	1.39434E-003	6	...........	-327.66
	162	32.6	-5.03254E-001	-4.10604E-009	0.00000E+000	-5.03400E-001	1.40099E-003	6	...........	-327.66
	163	32.8	-4.93364E-001	-3.87535E-009	0.00000E+000	-4.93400E-001	1.39267E-003	6	...........	-327.66
	164	33	-4.83317E-001	-3.67961E-009	0.00000E+000	-4.83400E-001	1.39604E-003	6	...........	-327.66
	165	33.2	-4.73386E-001	-3.42418E-009	0.00000E+000	-4.73400E-001	1.39384E-003	6	...........	-327.66
	166	33.4	-4.63268E-001	-3.19009E-009	0.00000E+000	-4.63400E-001	1.39257E-003	6	...........	-327.66
	167	33.6	-4.53334E-001	-3.00540E-009	0.00000E+000	-4.53400E-001	1.40228E-003	6	...........	-327.66
	168	33.8	-4.43301E-001	-2.69008E-009	0.00000E+000	-4.43400E-001	1.40208E-003	6	...........	-327.66
	169	34	-4.33370E-001	-2.42825E-009	0.00000E+000	-4.33400E-001	1.39733E-003	6	...........	-327.66
	170	34.2	-4.23234E-001	-2.15803E-009	0.00000E+000	-4.23400E-001	1.40218E-003	6	...........	-327.66
	171	34.4	-4.13350E-001	-1.90723E-009	0.00000E+000	-4.13400E-001	1.39161E-003	6	...........	-327.66
	172	34.6	-4.03396E-001	-1.61421E-009	0.00000E+000	-4.03400E-001	1.39639E-003	6	...........	-327.66
	173	34.8	-3.93367E-001	-1.21740E-009	0.00000E+000	-3.93400E-001	1.39566E-003	6	...........	-327.66
	174	35	-3.83362E-001	-8.87362E-010	0.00000E+000	-3.83400E-001	1.39301E-003	6	...........	-327.66
	175	35.2	-3.73340E-001	-6.21156E-010	0.00000E+000	-3.73400E-001	1.40716E-003	6	...........	-327.66
	176	35.4	-3.63476E-001	-2.37212E-010	0.00000E+000	-3.63400E-001	1.40426E-003	6	...........	-327.66
	177	35.6	-3.53411E-001	9.03885E-011	0.00000E+000	-3.53400E-001	1.40129E-003	6	...........	-327.66
	178	35.8	-3.43259E-001	4.23642E-010	0.00000E+000	-3.43400E-001	1.39768E-003	6	...........	-327.66
	179	36	-3.33434E-001	6.79176E-010	0.00000E+000	-3.33400E-001	1.39903E-003	6	...........	-327.66
	180	36.2	-3.23435E-001	9.78597E-010	0.00000E+000	-3.23400E-001	1.39821E-003	6	...........	-327.66
	181	36.4	-3.13463E-001	1.17547E-009	0.00000E+000	-3.13400E-001	1.39704E-003	6	...........	-327.66
	182	36.6	-3.03281E-001	1.41837E-009	0.00000E+000	-3.03400E-001	1.40388E-003	6	...........	-327.66
	183	36.8	-2.93324E-001	1.61201E-009	0.00000E+000	-2.93400E-001	1.39648E-003	6	...........	-327.66
	184	37	-2.83373E-001	1.87594E-009	0.00000E+000	-2.83400E-001	1.39984E-003	6	...........	-327.66
	185	37.2	-2.73410E-001	2.04334E-009	0.00000E+000	-2.73400E-001	1.39438E-003	6	...........	-327.66
	186	37.4	-2.63244E-001	2.18827E-009	0.00000E+000	-2.63400E-001	1.39623E-003	6	...........	-327.66
	187	37.6	-2.53449E-001	2.31441E-009	0.00000E+000	-2.53400E-001	1.39347E-003	6	...........	-327.66
	188	37.8	-2.43385E-001	2.47107E-009	0.00000E+000	-2.43400E-001	1.39618E-003	6	...........	-327.66
	189	38	-2.33409E-001	2.55224E-009	0.00000E+000	-2.33400E-001	1.38911E-003	6	...........	-327.66
	190	38.2	-2.23341E-001	2.61925E-009	0.00000E+000	-2.23400E-001	1.39883E-003	6	...........	-327.66
	191	38.4	-2.13454E-001	2.66899E-009	0.00000E+000	-2.13400E-001	1.39959E-003	6	...........	-327.66
	192	38.6	-2.03418E-001	2.73195E-009	0.00000E+000	-2.03400E-001	1.39868E-003	6	...........	-327.66
	193	38.8	-1.93456E-001	2.82695E-009	0.00000E+000	-1.93400E-001	1.39903E-003	6	...........	-327.66
	194	39	-1.83403E-001	2.88404E-009	0.00000E+000	-1.83400E-001	1.39426E-003	6	...........	-327.66
	195	39.2	-1.73492E-001	2.83008E-009	0.00000E+000	-1.73400E-001	1.39838E-003	6	...........	-327.66
	196	39.4	-1.63299E-001	2.87354E-009	0.00000E+000	-1.63400E-001	1.39523E-003	6	...........	-327.66
	197	39.6	-1.53500E-001	2.95374E-009	0.00000E+000	-1.53400E-001	1.39216E-003	6	...........	-327.66
	198	39.8	-1.43430E-001	3.06144E-009	0.00000E+000	-1.43400E-001	1.39434E-003	6	...........	-327.66
	199	40	-1.33461E-001	3.01110E-009	0.00000E+000	-1.33400E-001	1.40329E-003	6	...........	-327.66
	200	40.2	-1.23469E-001	2.97482E-009	0.00000E+000	-1.23400E-001	1.40501E-003	6	...........	-327.66
	201	40.4	-1.13512E-001	2.98754E-009	0.00000E+000	-1.13400E-001	1.39983E-003	6	...........	-327.66
	202	40.6	-1.03435E-001	3.12612E-009	0.00000E+000	-1.03400E-001	1.39858E-003	6	...........	-327.66
	203	40.8	-9.34483E-002	3.09137E-009	0.00000E+000	-9.34000E-002	1.39798E-003	6	...........	-327.66
	204	41	-8.33673E-002	3.00251E-009	0.00000E+000	-8.34000E-002	1.39479E-003	6	...........	-327.66
	205	41.2	-7.34944E-002	2.98397E-009	0.00000E+000	-7.34000E-002	1.39249E-003	6	...........	-327.66
	206	41.4	-6.34052E-002	3.11103E-009	0.00000E+000	-6.34000E-002	1.39576E-003	6	...........	-327.66
	207	41.6	-5.34493E-002	3.14610E-009	0.00000E+000	-5.34000E-002	1.40116E-003	6	...........	-327.66
	208	41.8	-4.34521E-002	3.21798E-009	0.00000E+000	-4.34000E-002	1.40234E-003	6	...........	-327.66
	209	42	-3.35056E-002	3.04250E-009	0.00000E+000	-3.34000E-002	1.40151E-003	6	...........	-327.66
	210	42.2	-2.34049E-002	3.07605E-009	0.00000E+000	-2.34000E-002	1.39629E-003	6	...........	-327.66
	211	42.4	-1.34111E-002	3.19400E-009	0.00000E+000	-1.34000E-002	1.39738E-003	6	...........	-327.66
	212	42.6	-3.45104E-003	3.20772E-009	0.00000E+000	-3.40001E-003	1.39578E-003	6	...........	-327.66
	213	42.8	6.54778E-003	3.02959E-009	0.00000E+000	6.59999E-003	1.38974E-003	6	...........	-327.66
	214	43	1.66131E-002	3.05735E-009	0.00000E+000	1.66000E-002	1.40324E-003	6	...........	-327.66
	215	43.2	2.65695E-002	3.06339E-009	0.00000E+000	2.66000E-002	1.39958E-003	6	...........	-327.66
	216	43.4	3.65886E-002	3.24573E-009	0.00000E+000	3.66000E-002	1.40730E-003	6	...........	-327.66
	217	43.6	4.66604E-002	3.20812E-009	0.00000E+000	4.66000E-002	1.39759E-003	6	...........	-327.66
	218	43.8	5.65915E-002	3.13829E-009	0.00000E+000	5.66000E-002	1.40373E-003	6	...........	-327.66
	219	44	6.65438E-002	3.11141E-009	0.00000E+000	6.66000E-002	1.39441E-003	6	...........	-327.66
	220	44.2	7.65679E-002	3.24889E-009	0.00000E+000	7.66000E-002	1.40106E-003	6	...........	-327.66
	221	44.4	8.65852E-002	3.33787E-009	0.00000E+000	8.66000E-002	1.39533E-003	6	...........	-327.66
	222	44.6	9.66380E-002	3.37312E-009	0.00000E+000	9.66000E-002	1.39794E-003	6	...........	-327.66
	223	44.8	1.06585E-001	3.13984E-009	0.00000E+000	1.06600E-001	1.40271E-003	6	...........	-327.66
	224	45	1.16457E-001	3.54143E-009	0.00000E+000	1.16600E-001	1.40176E-003	6	...........	-327.66
	225	45.2	1.26653E-001	3.38401E-009	0.00000E+000	1.26600E-001	1.40345E-003	6	...........	-327.66
	226	45.4	1.36682E-001	3.53824E-009	0.00000E+000	1.36600E-001	1.40483E-003	6	...........	-327.66
	227	45.6	1.46623E-001	3.24623E-009	0.00000E+000	1.46600E-001	1.39786E-003	6	...........	-327.66
	228	45.8	1.56607E-001	3.29747E-009	0.00000E+000	1.56600E-001	1.39299E-003	6	...........	-327.66
	229	46	1.66606E-001	3.72483E-009	0.00000E+000	1.66600E-001	1.39503E-003	6	...........	-327.66
	230	46.2	1.76669E-001	3.59308E-009	0.00000E+000	1.76600E-001	1.40465E-003	6	...........	-327.66
	231	46.4	1.86600E-001	3.70530E-009	0.00000E+000	1.86600E-001	1.39833E-003	6	...........	-327.66
	232	46.6	1.96651E-001	3.31134E-009	0.00000E+000	1.96600E-001	1.39823E-003	6	...........	-327.66
	233	46.8	2.06517E-001	3.30010E-009	0.00000E+000	2.06600E-001	1.39438E-003	6	...........	-327.66
	234	47	2.16643E-001	3.71783E-009	0.00000E+000	2.16600E-001	1.40371E-003	6	...........	-327.66
	235	47.2	2.26624E-001	3.46849E-009	0.00000E+000	2.26600E-001	1.39371E-003	6	...........	-327.66
	236	47.4	2.36543E-001	3.31077E-009	0.00000E+000	2.36600E-001	1.39479E-003	6	...........	-327.66
	237	47.6	2.46552E-001	3.38252E-009	0.00000E+000	2.46600E-001	1.39357E-003	6	...........	-327.66
	238	47.8	2.56618E-001	3.69406E-009	0.00000E+000	2.56600E-001	1.39291E-003	6	...........	-327.66
	239	48	2.66570E-001	3.70312E-009	0.00000E+000	2.66600E-001	1.40658E-003	6	...........	-327.66
	240	48.2	2.76480E-001	3.71346E-009	0.00000E+000	2.76600E-001	1.40098E-003	6	...........	-327.66
	241	48.4	2.86478E-001	3.35659E-009	0.00000E+000	2.86600E-001	1.40109E-003	6	...........	-327.66
	242	48.6	2.96651E-001	3.41047E-009	0.00000E+000	2.96600E-001	1.38982E-003	6	...........	-327.66
	243	48.8	3.06512E-001	3.65326E-009	0.00000E+000	3.06600E-001	1.39526E-003	6	...........	-327.66
	244	49	3.16541E-001	3.73322E-009	0.00000E+000	3.16600E-001	1.40234E-003	6	...........	-327.66
	245	49.2	3.26536E-001	3.41730E-009	0.00000E+000	3.26600E-001	1.38889E-003	6	...........	-327.66
	246	49.4	3.36547E-001	3.46071E-009	0.00000E+000	3.36600E-001	1.39699E-003	6	...........	-327.66
	247	49.6	3.46538E-001	3.66245E-009	0.00000E+000	3.46600E-001	1.39616E-003	6	...........	-327.66
	248	49.8	3.56498E-001	3.79646E-009	0.00000E+000	3.56600E-001	1.40898E-003	6	...........	-327.66
	249	50	3.66560E-001	3.88205E-009	0.00000E+000	3.66600E-001	1.39858E-003	6	...........	-327.66
	250	50.2	3.76597E-001	3.45527E-009	0.00000E+000	3.76600E-001	1.39619E-003	6	...........	-327.66
	251	50.4	3.86509E-001	3.39589E-009	0.00000E+000	3.86600E-001	1.39279E-003	6	...........	-327.66
	252	50.6	3.96615E-001	3.93259E-009	0.00000E+000	3.96600E-001	1.40349E-003	6	...........	-327.66
	253	50.8	4.06509E-001	3.86092E-009	0.00000E+000	4.06600E-001	1.39247E-003	6	...........	-327.66
	254	51	4.16627E-001	3.81120E-009	0.00000E+000	4.16600E-001	1.39868E-003	6	...........	-327.66
	255	51.2	4.26543E-001	3.43825E-009	0.00000E+000	4.26600E-001	1.39908E-003	6	...........	-327.66
	256	51.4	4.36512E-001	3.52959E-009	0.00000E+000	4.36600E-001	1.39994E-003	6	...........	-327.66
	257	51.6	4.46567E-001	4.00477E-009	0.00000E+000	4.46600E-001	1.40615E-003	6	...........	-327.66
	258	51.8	4.56699E-001	3.97668E-009	0.00000E+000	4.56600E-001	1.39903E-003	6	...........	-327.66
	259	52	4.66464E-001	3.60292E-009	0.00000E+000	4.66600E-001	1.39561E-003	6	...........	-327.66
	260	52.2	4.76549E-001	3.69587E-009	0.00000E+000	4.76600E-001	1.38679E-003	6	...........	-327.66
	261	52.4	4.86419E-001	4.04933E-009	0.00000E+000	4.86600E-001	1.39749E-003	6	...........	-327.66
	262	52.6	4.96638E-001	4.10515E-009	0.00000E+000	4.96600E-001	1.39468E-003	6	...........	-327.66
	263	52.8	5.06419E-001	4.10040E-009	0.00000E+000	5.06600E-001	1.40955E-003	6	...........	-327.66
	264	53	5.16494E-001	3.85389E-009	0.00000E+000	5.16600E-001	1.40054E-003	6	...........	-327.66
	265	53.2	5.26465E-001	3.98158E-009	0.00000E+000	5.26600E-001	1.39698E-003	6	...........	-327.66
	266	53.4	5.36732E-001	4.14954E-009	0.00000E+000	5.36600E-001	1.41008E-003	6	...........	-327.66
	267	53.6	5.46565E-001	4.15870E-009	0.00000E+000	5.46600E-001	1.39796E-003	6	...........	-327.66
	268	53.8	5.56532E-001	4.09006E-009	0.00000E+000	5.56600E-001	1.39184E-003	6	...........	-327.66
	269	54	5.66473E-001	4.11881E-009	0.00000E+000	5.66600E-001	1.38856E-003	6	...........	-327.66
	270	54.2	5.76772E-001	4.23280E-009	0.00000E+000	5.76600E-001	1.40336E-003	6	...........	-327.66
	271	54.4	5.86427E-001	4.30578E-009	0.00000E+000	5.86600E-001	1.40550E-003	6	...........	-327.66
	272	54.6	5.96519E-001	4.44346E-009	0.00000E+000	5.96600E-001	1.40753E-003	6	...........	-327.66
CURVE2	TABLE
	Pt	T	Vf	Im	Vu	Sig	Ach	IERange	Over	Temp
	#	s	V vs. Ref.	A	V	V	V	#	bits	deg C
	273	54.8	5.89967E-001	2.09409E-009	0.00000E+000	5.90000E-001	1.39763E-003	6	...........	-327.66
	274	55	5.79985E-001	1.24567E-009	0.00000E+000	5.80000E-001	1.40450E-003	6	...........	-327.66
	275	55.2	5.69956E-001	1.09872E-009	0.00000E+000	5.70000E-001	1.39269E-003	6	...........	-327.66
	276	55.4	5.59973E-001	9.18903E-010	0.00000E+000	5.60000E-001	1.39144E-003	6	...........	-327.66
	277	55.6	5.49942E-001	7.88443E-010	0.00000E+000	5.50000E-001	1.39614E-003	6	...........	-327.66
	278	55.8	5.39986E-001	6.31704E-010	0.00000E+000	5.40000E-001	1.39327E-003	6	...........	-327.66
	279	56	5.29969E-001	6.04492E-010	0.00000E+000	5.30000E-001	1.39709E-003	6	...........	-327.66
	280	56.2	5.19965E-001	5.14217E-010	0.00000E+000	5.20000E-001	1.39379E-003	6	...........	-327.66
	281	56.4	5.09975E-001	4.71114E-010	0.00000E+000	5.10000E-001	1.40166E-003	6	...........	-327.66
	282	56.6	4.99980E-001	3.94962E-010	0.00000E+000	5.00000E-001	1.39569E-003	6	...........	-327.66
	283	56.8	4.89946E-001	3.78188E-010	0.00000E+000	4.90000E-001	1.39451E-003	6	...........	-327.66
	284	57	4.79976E-001	3.30016E-010	0.00000E+000	4.80000E-001	1.39426E-003	6	...........	-327.66
	285	57.2	4.69948E-001	3.39903E-010	0.00000E+000	4.70000E-001	1.39539E-003	6	...........	-327.66
	286	57.4	4.59986E-001	3.03403E-010	0.00000E+000	4.60000E-001	1.39758E-003	6	...........	-327.66
	287	57.6	4.50039E-001	2.91414E-010	0.00000E+000	4.50000E-001	1.39688E-003	6	...........	-327.66
	288	57.8	4.39968E-001	2.34605E-010	0.00000E+000	4.40000E-001	1.40066E-003	6	...........	-327.66
	289	58	4.29985E-001	2.55915E-010	0.00000E+000	4.30000E-001	1.40158E-003	6	...........	-327.66
	290	58.2	4.19996E-001	2.53314E-010	0.00000E+000	4.20000E-001	1.39913E-003	6	...........	-327.66
	291	58.4	4.09967E-001	2.52613E-010	0.00000E+000	4.10000E-001	1.38764E-003	6	...........	-327.66
	292	58.6	3.99991E-001	1.93786E-010	0.00000E+000	4.00000E-001	1.39581E-003	6	...........	-327.66
	293	58.8	3.89969E-001	1.96287E-010	0.00000E+000	3.90000E-001	1.39681E-003	6	...........	-327.66
	294	59	3.79992E-001	1.41279E-010	0.00000E+000	3.80000E-001	1.39111E-003	6	...........	-327.66
	295	59.2	3.69972E-001	1.92202E-010	0.00000E+000	3.70000E-001	1.39739E-003	6	...........	-327.66
	296	59.4	3.59984E-001	1.41162E-010	0.00000E+000	3.60000E-001	1.40054E-003	6	...........	-327.66
	297	59.6	3.49996E-001	1.31974E-010	0.00000E+000	3.50000E-001	1.40311E-003	6	...........	-327.66
	298	59.8	3.39992E-001	9.90592E-011	0.00000E+000	3.40000E-001	1.39981E-003	6	...........	-327.66
	299	60	3.30002E-001	1.35526E-010	0.00000E+000	3.30000E-001	1.38897E-003	6	...........	-327.66
	300	60.2	3.19979E-001	7.62153E-011	0.00000E+000	3.20000E-001	1.39001E-003	6	...........	-327.66
	301	60.4	3.09980E-001	6.12084E-011	0.00000E+000	3.10000E-001	1.39453E-003	6	...........	-327.66
	302	60.6	2.99992E-001	2.06564E-011	0.00000E+000	3.00000E-001	1.39644E-003	6	...........	-327.66
	303	60.8	2.89970E-001	7.12130E-011	0.00000E+000	2.90000E-001	1.39943E-003	6	...........	-327.66
	304	61	2.79981E-001	3.59801E-011	0.00000E+000	2.80000E-001	1.40406E-003	6	...........	-327.66
	305	61.2	2.70060E-001	3.98152E-011	0.00000E+000	2.70000E-001	1.39816E-003	6	...........	-327.66
	306	61.4	2.59990E-001	2.65258E-011	0.00000E+000	2.60000E-001	1.39966E-003	6	...........	-327.66
	307	61.6	2.50022E-001	7.49647E-011	0.00000E+000	2.50000E-001	1.39146E-003	6	...........	-327.66
	308	61.8	2.39982E-001	2.28907E-011	0.00000E+000	2.40000E-001	1.38841E-003	6	...........	-327.66
	309	62	2.29990E-001	-2.64653E-011	0.00000E+000	2.30000E-001	1.39794E-003	6	...........	-327.66
	310	62.2	2.19994E-001	-6.45162E-011	0.00000E+000	2.20000E-001	1.39287E-003	6	...........	-327.66
	311	62.4	2.09980E-001	6.51654E-012	0.00000E+000	2.10000E-001	1.40076E-003	6	...........	-327.66
	312	62.6	1.99995E-001	-4.66746E-011	0.00000E+000	2.00000E-001	1.39801E-003	6	...........	-327.66
	313	62.8	1.89994E-001	-5.01095E-011	0.00000E+000	1.90000E-001	1.40388E-003	6	...........	-327.66
	314	63	1.79998E-001	-1.10087E-010	0.00000E+000	1.80000E-001	1.39696E-003	6	...........	-327.66
	315	63.2	1.70070E-001	-7.05356E-011	0.00000E+000	1.70000E-001	1.39794E-003	6	...........	-327.66
	316	63.4	1.59993E-001	-1.00816E-010	0.00000E+000	1.60000E-001	1.39499E-003	6	...........	-327.66
	317	63.6	1.50007E-001	-8.91275E-011	0.00000E+000	1.50000E-001	1.39511E-003	6	...........	-327.66
	318	63.8	1.40028E-001	-6.43494E-011	0.00000E+000	1.40000E-001	1.40063E-003	6	...........	-327.66
	319	64	1.30027E-001	-4.10220E-011	0.00000E+000	1.30000E-001	1.39819E-003	6	...........	-327.66
	320	64.2	1.19997E-001	-1.19725E-010	0.00000E+000	1.20000E-001	1.40131E-003	6	...........	-327.66
	321	64.4	1.09999E-001	-1.43152E-010	0.00000E+000	1.10000E-001	1.39983E-003	6	...........	-327.66
	322	64.6	9.99994E-002	-1.70949E-010	0.00000E+000	1.00000E-001	1.40309E-003	6	...........	-327.66
	323	64.8	9.00868E-002	-1.21993E-010	0.00000E+000	9.00000E-002	1.39272E-003	6	...........	-327.66
	324	65	7.99898E-002	-1.58976E-010	0.00000E+000	8.00000E-002	1.39469E-003	6	...........	-327.66
	325	65.2	7.00039E-002	-1.81487E-010	0.00000E+000	7.00000E-002	1.40094E-003	6	...........	-327.66
	326	65.4	6.00027E-002	-1.88790E-010	0.00000E+000	6.00000E-002	1.39926E-003	6	...........	-327.66
	327	65.6	5.00118E-002	-1.26511E-010	0.00000E+000	5.00000E-002	1.39939E-003	6	...........	-327.66
	328	65.8	3.97825E-002	-2.13935E-010	0.00000E+000	4.00000E-002	1.40473E-003	6	...........	-327.66
	329	66	2.99941E-002	-2.59139E-010	0.00000E+000	3.00000E-002	1.40465E-003	6	...........	-327.66
	330	66.2	2.00039E-002	-2.81983E-010	0.00000E+000	2.00000E-002	1.40139E-003	6	...........	-327.66
	331	66.4	9.99278E-003	-1.99512E-010	0.00000E+000	9.99999E-003	1.39226E-003	6	...........	-327.66
	332	66.6	-1.59638E-005	-2.66142E-010	0.00000E+000	-1.49012E-008	1.39212E-003	6	...........	-327.66
	333	66.8	-9.99695E-003	-2.21222E-010	0.00000E+000	-1.00000E-002	1.39072E-003	6	...........	-327.66
	334	67	-1.99953E-002	-2.76547E-010	0.00000E+000	-2.00000E-002	1.40438E-003	6	...........	-327.66
	335	67.2	-2.99953E-002	-2.38663E-010	0.00000E+000	-3.00000E-002	1.39943E-003	6	...........	-327.66
	336	67.4	-4.00198E-002	-2.86852E-010	0.00000E+000	-4.00000E-002	1.40088E-003	6	...........	-327.66
	337	67.6	-5.00267E-002	-2.88286E-010	0.00000E+000	-5.00000E-002	1.39784E-003	6	...........	-327.66
	338	67.8	-6.00039E-002	-3.13514E-010	0.00000E+000	-6.00000E-002	1.39876E-003	6	...........	-327.66
	339	68	-6.99892E-002	-2.43215E-010	0.00000E+000	-7.00000E-002	1.39468E-003	6	...........	-327.66
	340	68.2	-8.00119E-002	-3.52866E-010	0.00000E+000	-8.00000E-002	1.38982E-003	6	...........	-327.66
	341	68.4	-9.00294E-002	-4.00154E-010	0.00000E+000	-9.00000E-002	1.39504E-003	6	...........	-327.66
	342	68.6	-1.00004E-001	-4.24198E-010	0.00000E+000	-1.00000E-001	1.39813E-003	6	...........	-327.66
	343	68.8	-1.09983E-001	-3.50565E-010	0.00000E+000	-1.10000E-001	1.39801E-003	6	...........	-327.66
	344	69	-1.20023E-001	-4.16495E-010	0.00000E+000	-1.20000E-001	1.39871E-003	6	...........	-327.66
	345	69.2	-1.30014E-001	-4.47843E-010	0.00000E+000	-1.30000E-001	1.40254E-003	6	...........	-327.66
	346	69.4	-1.39996E-001	-4.78190E-010	0.00000E+000	-1.40000E-001	1.40366E-003	6	...........	-327.66
	347	69.6	-1.50030E-001	-4.32786E-010	0.00000E+000	-1.50000E-001	1.39176E-003	6	...........	-327.66
	348	69.8	-1.60021E-001	-5.03252E-010	0.00000E+000	-1.60000E-001	1.39601E-003	6	...........	-327.66
	349	70	-1.70024E-001	-5.59144E-010	0.00000E+000	-1.70000E-001	1.39778E-003	6	...........	-327.66
	350	70.2	-1.80005E-001	-5.83689E-010	0.00000E+000	-1.80000E-001	1.40271E-003	6	...........	-327.66
	351	70.4	-1.89842E-001	-5.34416E-010	0.00000E+000	-1.90000E-001	1.40049E-003	6	...........	-327.66
	352	70.6	-2.00026E-001	-6.30360E-010	0.00000E+000	-2.00000E-001	1.40131E-003	6	...........	-327.66
	353	70.8	-2.09998E-001	-6.79599E-010	0.00000E+000	-2.10000E-001	1.40129E-003	6	...........	-327.66
	354	71	-2.19964E-001	-7.10330E-010	0.00000E+000	-2.20000E-001	1.40525E-003	6	...........	-327.66
	355	71.2	-2.29995E-001	-7.06195E-010	0.00000E+000	-2.30000E-001	1.39531E-003	6	...........	-327.66
	356	71.4	-2.40012E-001	-7.84548E-010	0.00000E+000	-2.40000E-001	1.39929E-003	6	...........	-327.66
	357	71.6	-2.50010E-001	-8.64685E-010	0.00000E+000	-2.50000E-001	1.40319E-003	6	...........	-327.66
	358	71.8	-2.59997E-001	-9.70117E-010	0.00000E+000	-2.60000E-001	1.39951E-003	6	...........	-327.66
	359	72	-2.69971E-001	-1.03086E-009	0.00000E+000	-2.70000E-001	1.41070E-003	6	...........	-327.66
	360	72.2	-2.80041E-001	-1.16060E-009	0.00000E+000	-2.80000E-001	1.40550E-003	6	...........	-327.66
	361	72.4	-2.90002E-001	-1.31819E-009	0.00000E+000	-2.90000E-001	1.40760E-003	6	...........	-327.66
	362	72.6	-2.99979E-001	-1.51602E-009	0.00000E+000	-3.00000E-001	1.40523E-003	6	...........	-327.66
	363	72.8	-3.09985E-001	-1.64694E-009	0.00000E+000	-3.10000E-001	1.39554E-003	6	...........	-327.66
	364	73	-3.20003E-001	-1.99302E-009	0.00000E+000	-3.20000E-001	1.40046E-003	6	...........	-327.66
	365	73.2	-3.30001E-001	-2.30125E-009	0.00000E+000	-3.30000E-001	1.40071E-003	6	...........	-327.66
	366	73.4	-3.40000E-001	-2.64325E-009	0.00000E+000	-3.40000E-001	1.40083E-003	6	...........	-327.66
	367	73.6	-3.49945E-001	-2.90978E-009	0.00000E+000	-3.50000E-001	1.40071E-003	6	...........	-327.66
	368	73.8	-3.60047E-001	-3.34751E-009	0.00000E+000	-3.60000E-001	1.40304E-003	6	...........	-327.66
	369	74	-3.69927E-001	-3.77654E-009	0.00000E+000	-3.70000E-001	1.39909E-003	6	...........	-327.66
	370	74.2	-3.79989E-001	-4.23966E-009	0.00000E+000	-3.80000E-001	1.40831E-003	6	...........	-327.66
	371	74.4	-3.89951E-001	-4.55435E-009	0.00000E+000	-3.90000E-001	1.39496E-003	6	...........	-327.66
	372	74.6	-3.99944E-001	-5.01957E-009	0.00000E+000	-4.00000E-001	1.39373E-003	6	...........	-327.66
	373	74.8	-4.09986E-001	-5.46377E-009	0.00000E+000	-4.10000E-001	1.39554E-003	6	...........	-327.66
	374	75	-4.19967E-001	-5.84263E-009	0.00000E+000	-4.20000E-001	1.39718E-003	6	...........	-327.66
	375	75.2	-4.29942E-001	-6.13726E-009	0.00000E+000	-4.30000E-001	1.40138E-003	6	...........	-327.66
	376	75.4	-4.39991E-001	-6.53133E-009	0.00000E+000	-4.40000E-001	1.39623E-003	6	...........	-327.66
	377	75.6	-4.49921E-001	-6.78191E-009	0.00000E+000	-4.50000E-001	1.40723E-003	6	...........	-327.66
	378	75.8	-4.59978E-001	-7.04885E-009	0.00000E+000	-4.60000E-001	1.40219E-003	6	...........	-327.66
	379	76	-4.69800E-001	-7.19098E-009	0.00000E+000	-4.70000E-001	1.39696E-003	6	...........	-327.66
	380	76.2	-4.79967E-001	-7.37582E-009	0.00000E+000	-4.80000E-001	1.40074E-003	6	...........	-327.66
	381	76.4	-4.89979E-001	-7.47560E-009	0.00000E+000	-4.90000E-001	1.40064E-003	6	...........	-327.66
[...]
	701	140.4	-6.89957E-001	-8.67075E-009	0.00000E+000	-6.90000E-001	1.40446E-003	6	...........	-327.66
	702	140.6	-6.99975E-001	-8.85413E-009	0.00000E+000	-7.00000E-001	1.41045E-003	6	...........	-327.66
	703	140.8	-7.09870E-001	-8.89998E-009	0.00000E+000	-7.10000E-001	1.40289E-003	6	...........	-327.66
	704	141	-7.19982E-001	-9.16416E-009	0.00000E+000	-7.20000E-001	1.39731E-003	6	...........	-327.66
	705	141.2	-7.29870E-001	-9.28905E-009	0.00000E+000	-7.30000E-001	1.40253E-003	6	...........	-327.66
	706	141.4	-7.39968E-001	-9.55430E-009	0.00000E+000	-7.40000E-001	1.39649E-003	6	...........	-327.66
	707	141.6	-7.49826E-001	-9.72143E-009	0.00000E+000	-7.50000E-001	1.40471E-003	6	...........	-327.66
	708	141.8	-7.59922E-001	-9.97121E-009	0.00000E+000	-7.60000E-001	1.40338E-003	6	...........	-327.66
	709	142	-7.69966E-001	-1.02379E-008	0.00000E+000	-7.70000E-001	1.40856E-003	6	...........	-327.66
	710	142.2	-7.79950E-001	-1.05464E-008	0.00000E+000	-7.80000E-001	1.40561E-003	6	...........	-327.66
	711	142.4	-7.89890E-001	-1.07998E-008	0.00000E+000	-7.90000E-001	1.39819E-003	6	...........	-327.66
	712	142.6	-7.99963E-001	-1.11362E-008	0.00000E+000	-8.00000E-001	1.39608E-003	6	...........	-327.66
	713	142.8	-8.09917E-001	-1.14605E-008	0.00000E+000	-8.10000E-001	1.39854E-003	6	...........	-327.66
	714	143	-8.19974E-001	-1.18713E-008	0.00000E+000	-8.20000E-001	1.39666E-003	6	...........	-327.66
	715	143.2	-8.29874E-001	-1.21321E-008	0.00000E+000	-8.30000E-001	1.39606E-003	6	...........	-327.66
	716	143.4	-8.39978E-001	-1.25007E-008	0.00000E+000	-8.40000E-001	1.40061E-003	6	...........	-327.66
	717	143.6	-8.49975E-001	-1.28260E-008	0.00000E+000	-8.50000E-001	1.39996E-003	6	...........	-327.66
	718	143.8	-8.59889E-001	-1.31436E-008	0.00000E+000	-8.60000E-001	1.40176E-003	6	...........	-327.66
	719	144	-8.69948E-001	-1.34035E-008	0.00000E+000	-8.70000E-001	1.39394E-003	6	...........	-327.66
	720	144.2	-8.79999E-001	-1.37288E-008	0.00000E+000	-8.80000E-001	1.39758E-003	6	...........	-327.66
	721	144.4	-8.89973E-001	-1.41360E-008	0.00000E+000	-8.90000E-001	1.39669E-003	6	...........	-327.66
	722	144.6	-8.99964E-001	-1.45171E-008	0.00000E+000	-9.00000E-001	1.39519E-003	6	...........	-327.66
	723	144.8	-8.89998E-001	-1.23964E-008	0.00000E+000	-8.90000E-001	1.40128E-003	6	...........	-327.66
	724	145	-8.79989E-001	-1.17819E-008	0.00000E+000	-8.80000E-001	1.39519E-003	6	...........	-327.66
	725	145.2	-8.69970E-001	-1.12001E-008	0.00000E+000	-8.70000E-001	1.39149E-003	6	...........	-327.66
	726	145.4	-8.59897E-001	-1.07651E-008	0.00000E+000	-8.60000E-001	1.39956E-003	6	...........	-327.66
	727	145.6	-8.49995E-001	-1.03092E-008	0.00000E+000	-8.50000E-001	1.40108E-003	6	...........	-327.66
	728	145.8	-8.39997E-001	-9.92119E-009	0.00000E+000	-8.40000E-001	1.40249E-003	6	...........	-327.66
	729	146	-8.29887E-001	-9.45237E-009	0.00000E+000	-8.30000E-001	1.40203E-003	6	...........	-327.66
	730	146.2	-8.19998E-001	-9.04502E-009	0.00000E+000	-8.20000E-001	1.40665E-003	6	...........	-327.66
	731	146.4	-8.09904E-001	-8.73896E-009	0.00000E+000	-8.10000E-001	1.40271E-003	6	...........	-327.66
	732	146.6	-7.99955E-001	-8.48316E-009	0.00000E+000	-8.00000E-001	1.39227E-003	6	...........	-327.66
	733	146.8	-7.89949E-001	-8.15497E-009	0.00000E+000	-7.90000E-001	1.39993E-003	6	...........	-327.66
	734	147	-7.79948E-001	-7.88867E-009	0.00000E+000	-7.80000E-001	1.40851E-003	6	...........	-327.66
	735	147.2	-7.69982E-001	-7.57759E-009	0.00000E+000	-7.70000E-001	1.40668E-003	6	...........	-327.66
	736	147.4	-7.59946E-001	-7.34947E-009	0.00000E+000	-7.60000E-001	1.40378E-003	6	...........	-327.66
	737	147.6	-7.49941E-001	-7.01982E-009	0.00000E+000	-7.50000E-001	1.40755E-003	6	...........	-327.66
	738	147.8	-7.39989E-001	-6.89653E-009	0.00000E+000	-7.40000E-001	1.40199E-003	6	...........	-327.66
	739	148	-7.29902E-001	-6.61707E-009	0.00000E+000	-7.30000E-001	1.40056E-003	6	...........	-327.66
	740	148.2	-7.20000E-001	-6.41321E-009	0.00000E+000	-7.20000E-001	1.40036E-003	6	...........	-327.66
	741	148.4	-7.09888E-001	-6.14061E-009	0.00000E+000	-7.10000E-001	1.39611E-003	6	...........	-327.66
	742	148.6	-6.99989E-001	-6.06451E-009	0.00000E+000	-7.00000E-001	1.41040E-003	6	...........	-327.66
	743	148.8	-6.89982E-001	-5.80826E-009	0.00000E+000	-6.90000E-001	1.40915E-003	6	...........	-327.66
	744	149	-6.79889E-001	-5.67290E-009	0.00000E+000	-6.80000E-001	1.40773E-003	6	...........	-327.66
	745	149.2	-6.69863E-001	-5.47581E-009	0.00000E+000	-6.70000E-001	1.40028E-003	6	...........	-327.66
	746	149.4	-6.59961E-001	-5.37323E-009	0.00000E+000	-6.60000E-001	1.40733E-003	6	...........	-327.66
	747	149.6	-6.49965E-001	-5.22589E-009	0.00000E+000	-6.50000E-001	1.40039E-003	6	...........	-327.66
	748	149.8	-6.39998E-001	-5.16920E-009	0.00000E+000	-6.40000E-001	1.39581E-003	6	...........	-327.66
	749	150	-6.29909E-001	-5.00808E-009	0.00000E+000	-6.30000E-001	1.39603E-003	6	...........	-327.66
	750	150.2	-6.19974E-001	-4.97458E-009	0.00000E+000	-6.20000E-001	1.40366E-003	6	...........	-327.66
	751	150.4	-6.09998E-001	-4.85997E-009	0.00000E+000	-6.10000E-001	1.40685E-003	6	...........	-327.66
	752	150.6	-5.99969E-001	-4.66235E-009	0.00000E+000	-6.00000E-001	1.39678E-003	6	...........	-327.66
	753	150.8	-5.89967E-001	-4.52484E-009	0.00000E+000	-5.90000E-001	1.40261E-003	6	...........	-327.66
	754	151	-5.79930E-001	-4.47860E-009	0.00000E+000	-5.80000E-001	1.39754E-003	6	...........	-327.66
	755	151.2	-5.69990E-001	-4.35092E-009	0.00000E+000	-5.70000E-001	1.39938E-003	6	...........	-327.66
	756	151.4	-5.60005E-001	-4.27045E-009	0.00000E+000	-5.60000E-001	1.39292E-003	6	...........	-327.66
	757	151.6	-5.49938E-001	-4.11290E-009	0.00000E+000	-5.50000E-001	1.39249E-003	6	...........	-327.66
	758	151.8	-5.40004E-001	-4.00545E-009	0.00000E+000	-5.40000E-001	1.40234E-003	6	...........	-327.66
	759	152	-5.29962E-001	-3.80929E-009	0.00000E+000	-5.30000E-001	1.40701E-003	6	...........	-327.66
	760	152.2	-5.20015E-001	-3.72827E-009	0.00000E+000	-5.20000E-001	1.40176E-003	6	...........	-327.66
	761	152.4	-5.09975E-001	-3.50190E-009	0.00000E+000	-5.10000E-001	1.40089E-003	6	...........	-327.66
	762	152.6	-4.99899E-001	-3.39492E-009	0.00000E+000	-5.00000E-001	1.40640E-003	6	...........	-327.66
	763	152.8	-4.89992E-001	-3.21036E-009	0.00000E+000	-4.90000E-001	1.40066E-003	6	...........	-327.66
	764	153	-4.79972E-001	-2.97201E-009	0.00000E+000	-4.80000E-001	1.39398E-003	6	...........	-327.66
	765	153.2	-4.69919E-001	-2.70136E-009	0.00000E+000	-4.70000E-001	1.39829E-003	6	...........	-327.66
	766	153.4	-4.59982E-001	-2.53345E-009	0.00000E+000	-4.60000E-001	1.40665E-003	6	...........	-327.66
	767	153.6	-4.49929E-001	-2.24149E-009	0.00000E+000	-4.50000E-001	1.40700E-003	6	...........	-327.66
	768	153.8	-4.40011E-001	-2.03652E-009	0.00000E+000	-4.40000E-001	1.40079E-003	6	...........	-327.66
	769	154	-4.29974E-001	-1.72101E-009	0.00000E+000	-4.30000E-001	1.40466E-003	6	...........	-327.66
	770	154.2	-4.19984E-001	-1.50128E-009	0.00000E+000	-4.20000E-001	1.39929E-003	6	...........	-327.66
	771	154.4	-4.10005E-001	-1.13543E-009	0.00000E+000	-4.10000E-001	1.39914E-003	6	...........	-327.66
	772	154.6	-3.99974E-001	-7.93285E-010	0.00000E+000	-4.00000E-001	1.39844E-003	6	...........	-327.66
	773	154.8	-3.89998E-001	-4.15561E-010	0.00000E+000	-3.90000E-001	1.40143E-003	6	...........	-327.66
	774	155	-3.80007E-001	-2.01262E-010	0.00000E+000	-3.80000E-001	1.41280E-003	6	...........	-327.66
	775	155.2	-3.69934E-001	2.57399E-010	0.00000E+000	-3.70000E-001	1.40336E-003	6	...........	-327.66
	776	155.4	-3.60081E-001	5.26056E-010	0.00000E+000	-3.60000E-001	1.40875E-003	6	...........	-327.66
	777	155.6	-3.50002E-001	8.60693E-010	0.00000E+000	-3.50000E-001	1.40465E-003	6	...........	-327.66
	778	155.8	-3.40019E-001	1.10562E-009	0.00000E+000	-3.40000E-001	1.40164E-003	6	...........	-327.66
	779	156	-3.30025E-001	1.39351E-009	0.00000E+000	-3.30000E-001	1.40168E-003	6	...........	-327.66
	780	156.2	-3.20033E-001	1.62154E-009	0.00000E+000	-3.20000E-001	1.39736E-003	6	...........	-327.66
	781	156.4	-3.09995E-001	1.94946E-009	0.00000E+000	-3.10000E-001	1.39806E-003	6	...........	-327.66
	782	156.6	-3.00013E-001	2.05925E-009	0.00000E+000	-3.00000E-001	1.40555E-003	6	...........	-327.66
	783	156.8	-2.90000E-001	2.28278E-009	0.00000E+000	-2.90000E-001	1.40438E-003	6	...........	-327.66
	784	157	-2.80020E-001	2.41317E-009	0.00000E+000	-2.80000E-001	1.40406E-003	6	...........	-327.66
	785	157.2	-2.70000E-001	2.60798E-009	0.00000E+000	-2.70000E-001	1.40371E-003	6	...........	-327.66
	786	157.4	-2.60017E-001	2.69105E-009	0.00000E+000	-2.60000E-001	1.39956E-003	6	...........	-327.66
	787	157.6	-2.50037E-001	2.80697E-009	0.00000E+000	-2.50000E-001	1.40628E-003	6	...........	-327.66
	788	157.8	-2.40021E-001	2.87149E-009	0.00000E+000	-2.40000E-001	1.40380E-003	6	...........	-327.66
	789	158	-2.30014E-001	3.12712E-009	0.00000E+000	-2.30000E-001	1.39721E-003	6	...........	-327.66
	790	158.2	-2.19965E-001	3.17134E-009	0.00000E+000	-2.20000E-001	1.39863E-003	6	...........	-327.66
	791	158.4	-2.10013E-001	3.27547E-009	0.00000E+000	-2.10000E-001	1.40855E-003	6	...........	-327.66
	792	158.6	-2.00030E-001	3.11888E-009	0.00000E+000	-2.00000E-001	1.40508E-003	6	...........	-327.66
	793	158.8	-1.90063E-001	3.22250E-009	0.00000E+000	-1.90000E-001	1.40106E-003	6	...........	-327.66
	794	159	-1.80025E-001	3.34134E-009	0.00000E+000	-1.80000E-001	1.40233E-003	6	...........	-327.66
	795	159.2	-1.70024E-001	3.50013E-009	0.00000E+000	-1.70000E-001	1.40435E-003	6	...........	-327.66
	796	159.4	-1.60024E-001	3.27297E-009	0.00000E+000	-1.60000E-001	1.39731E-003	6	...........	-327.66
	797	159.6	-1.50051E-001	3.35581E-009	0.00000E+000	-1.50000E-001	1.39638E-003	6	...........	-327.66
	798	159.8	-1.40011E-001	3.55668E-009	0.00000E+000	-1.40000E-001	1.41126E-003	6	...........	-327.66
	799	160	-1.30031E-001	3.63340E-009	0.00000E+000	-1.30000E-001	1.41422E-003	6	...........	-327.66
	800	160.2	-1.20011E-001	3.71621E-009	0.00000E+000	-1.20000E-001	1.40786E-003	6	...........	-327.66
	801	160.4	-1.10040E-001	3.39906E-009	0.00000E+000	-1.10000E-001	1.40611E-003	6	...........	-327.66
	802	160.6	-1.00020E-001	3.31587E-009	0.00000E+000	-1.00000E-001	1.40239E-003	6	...........	-327.66
	803	160.8	-9.00184E-002	3.73056E-009	0.00000E+000	-9.00000E-002	1.40883E-003	6	...........	-327.66
	804	161	-8.00347E-002	3.73058E-009	0.00000E+000	-8.00000E-002	1.39949E-003	6	...........	-327.66
	805	161.2	-7.00110E-002	3.45292E-009	0.00000E+000	-7.00000E-002	1.40069E-003	6	...........	-327.66
	806	161.4	-6.00217E-002	3.33865E-009	0.00000E+000	-6.00000E-002	1.41123E-003	6	...........	-327.66
	807	161.6	-5.00455E-002	3.37995E-009	0.00000E+000	-5.00000E-002	1.40703E-003	6	...........	-327.66
	808	161.8	-3.99717E-002	3.82214E-009	0.00000E+000	-4.00000E-002	1.41353E-003	6	...........	-327.66
	809	162	-3.00016E-002	3.72431E-009	0.00000E+000	-3.00000E-002	1.40875E-003	6	...........	-327.66
	810	162.2	-2.00108E-002	3.32083E-009	0.00000E+000	-2.00000E-002	1.40174E-003	6	...........	-327.66
	811	162.4	-1.00252E-002	3.33933E-009	0.00000E+000	-1.00000E-002	1.40179E-003	6	...........	-327.66
	812	162.6	-3.73460E-005	3.72204E-009	0.00000E+000	-1.49012E-008	1.39759E-003	6	...........	-327.66
	813	162.8	1.00210E-002	3.79308E-009	0.00000E+000	9.99999E-003	1.40375E-003	6	...........	-327.66
	814	163	1.99911E-002	3.70640E-009	0.00000E+000	2.00000E-002	1.40910E-003	6	...........	-327.66
	815	163.2	2.99822E-002	3.30245E-009	0.00000E+000	3.00000E-002	1.41280E-003	6	...........	-327.66
	816	163.4	3.97367E-002	3.64978E-009	0.00000E+000	4.00000E-002	1.41412E-003	6	...........	-327.66
	817	163.6	5.00071E-002	3.53411E-009	0.00000E+000	5.00000E-002	1.40861E-003	6	...........	-327.66
	818	163.8	6.00127E-002	3.68024E-009	0.00000E+000	6.00000E-002	1.40246E-003	6	...........	-327.66
	819	164	6.99939E-002	3.31641E-009	0.00000E+000	7.00000E-002	1.40495E-003	6	...........	-327.66
	820	164.2	7.99765E-002	3.34866E-009	0.00000E+000	8.00000E-002	1.40048E-003	6	...........	-327.66
	821	164.4	9.00797E-002	3.73300E-009	0.00000E+000	9.00000E-002	1.40136E-003	6	...........	-327.66
	822	164.6	9.99823E-002	3.63064E-009	0.00000E+000	1.00000E-001	1.41203E-003	6	...........	-327.66
	823	164.8	1.09986E-001	3.76031E-009	0.00000E+000	1.10000E-001	1.41093E-003	6	...........	-327.66
	824	165	1.19986E-001	3.38859E-009	0.00000E+000	1.20000E-001	1.40700E-003	6	...........	-327.66
	825	165.2	1.29985E-001	3.48292E-009	0.00000E+000	1.30000E-001	1.40603E-003	6	...........	-327.66
	826	165.4	1.40081E-001	3.93448E-009	0.00000E+000	1.40000E-001	1.40838E-003	6	...........	-327.66
	827	165.6	1.49985E-001	3.81404E-009	0.00000E+000	1.50000E-001	1.41033E-003	6	...........	-327.66
	828	165.8	1.59979E-001	3.47436E-009	0.00000E+000	1.60000E-001	1.39743E-003	6	...........	-327.66
	829	166	1.69987E-001	3.51582E-009	0.00000E+000	1.70000E-001	1.40453E-003	6	...........	-327.66
	830	166.2	1.79984E-001	3.68973E-009	0.00000E+000	1.80000E-001	1.40653E-003	6	...........	-327.66
	831	166.4	1.90025E-001	3.94855E-009	0.00000E+000	1.90000E-001	1.40846E-003	6	...........	-327.66
	832	166.6	1.99977E-001	3.87962E-009	0.00000E+000	2.00000E-001	1.41475E-003	6	...........	-327.66
	833	166.8	2.09965E-001	3.51090E-009	0.00000E+000	2.10000E-001	1.40269E-003	6	...........	-327.66
	834	167	2.19978E-001	3.43373E-009	0.00000E+000	2.20000E-001	1.39873E-003	6	...........	-327.66
	835	167.2	2.29976E-001	3.74647E-009	0.00000E+000	2.30000E-001	1.41061E-003	6	...........	-327.66
	836	167.4	2.39975E-001	3.92034E-009	0.00000E+000	2.40000E-001	1.40124E-003	6	...........	-327.66
	837	167.6	2.50015E-001	3.70891E-009	0.00000E+000	2.50000E-001	1.40331E-003	6	...........	-327.66
	838	167.8	2.59968E-001	3.48564E-009	0.00000E+000	2.60000E-001	1.40820E-003	6	...........	-327.66
	839	168	2.69988E-001	3.82943E-009	0.00000E+000	2.70000E-001	1.40760E-003	6	...........	-327.66
	840	168.2	2.79941E-001	3.93819E-009	0.00000E+000	2.80000E-001	1.41163E-003	6	...........	-327.66
	841	168.4	2.89982E-001	4.04638E-009	0.00000E+000	2.90000E-001	1.40975E-003	6	...........	-327.66
	842	168.6	2.99974E-001	3.56402E-009	0.00000E+000	3.00000E-001	1.40369E-003	6	...........	-327.66
	843	168.8	3.09966E-001	3.54968E-009	0.00000E+000	3.10000E-001	1.40089E-003	6	...........	-327.66
	844	169	3.19964E-001	4.03374E-009	0.00000E+000	3.20000E-001	1.40558E-003	6	...........	-327.66
	845	169.2	3.29989E-001	3.98420E-009	0.00000E+000	3.30000E-001	1.40463E-003	6	...........	-327.66
	846	169.4	3.39987E-001	4.05495E-009	0.00000E+000	3.40000E-001	1.41853E-003	6	...........	-327.66
	847	169.6	3.49984E-001	3.59859E-009	0.00000E+000	3.50000E-001	1.41293E-003	6	...........	-327.66
	848	169.8	3.59965E-001	3.61571E-009	0.00000E+000	3.60000E-001	1.40930E-003	6	...........	-327.66
	849	170	3.69988E-001	4.05435E-009	0.00000E+000	3.70000E-001	1.41647E-003	6	...........	-327.66
	850	170.2	3.79975E-001	4.00831E-009	0.00000E+000	3.80000E-001	1.41250E-003	6	...........	-327.66
	851	170.4	3.89957E-001	3.63207E-009	0.00000E+000	3.90000E-001	1.40900E-003	6	...........	-327.66
	852	170.6	3.99971E-001	3.66168E-009	0.00000E+000	4.00000E-001	1.40401E-003	6	...........	-327.66
	853	170.8	4.09935E-001	4.07979E-009	0.00000E+000	4.10000E-001	1.40533E-003	6	...........	-327.66
	854	171	4.20060E-001	4.08328E-009	0.00000E+000	4.20000E-001	1.41448E-003	6	...........	-327.66
	855	171.2	4.29952E-001	4.05723E-009	0.00000E+000	4.30000E-001	1.41798E-003	6	...........	-327.66
	856	171.4	4.39950E-001	3.70931E-009	0.00000E+000	4.40000E-001	1.40720E-003	6	...........	-327.66
	857	171.6	4.49976E-001	3.87061E-009	0.00000E+000	4.50000E-001	1.41035E-003	6	...........	-327.66
	858	171.8	4.59975E-001	4.07652E-009	0.00000E+000	4.60000E-001	1.41522E-003	6	...........	-327.66
	859	172	4.69938E-001	4.11402E-009	0.00000E+000	4.70000E-001	1.41018E-003	6	...........	-327.66
	860	172.2	4.79957E-001	3.86333E-009	0.00000E+000	4.80000E-001	1.40751E-003	6	...........	-327.66
	861	172.4	4.89944E-001	3.91515E-009	0.00000E+000	4.90000E-001	1.40478E-003	6	...........	-327.66
	862	172.6	4.99981E-001	4.11286E-009	0.00000E+000	5.00000E-001	1.41487E-003	6	...........	-327.66
	863	172.8	5.09907E-001	4.16356E-009	0.00000E+000	5.10000E-001	1.42085E-003	6	...........	-327.66
	864	173	5.19964E-001	4.17023E-009	0.00000E+000	5.20000E-001	1.41573E-003	6	...........	-327.66
	865	173.2	5.29976E-001	4.11701E-009	0.00000E+000	5.30000E-001	1.41365E-003	6	...........	-327.66
	866	173.4	5.39972E-001	4.13283E-009	0.00000E+000	5.40000E-001	1.40520E-003	6	...........	-327.66
	867	173.6	5.49953E-001	4.25602E-009	0.00000E+000	5.50000E-001	1.41565E-003	6	...........	-327.66
	868	173.8	5.59961E-001	4.28639E-009	0.00000E+000	5.60000E-001	1.40511E-003	6	...........	-327.66
	869	174	5.69945E-001	4.36479E-009	0.00000E+000	5.70000E-001	1.41166E-003	6	...........	-327.66
	870	174.2	5.79970E-001	4.38633E-009	0.00000E+000	5.80000E-001	1.41813E-003	6	...........	-327.66
	871	174.4	5.89937E-001	4.51358E-009	0.00000E+000	5.90000E-001	1.41608E-003	6	...........	-327.66
	872	174.6	5.99978E-001	4.60729E-009	0.00000E+000	6.00000E-001	1.41490E-003	6	...........	-327.66
CURVE4	TABLE
	Pt	T	Vf	Im	Vu	Sig	Ach	IERange	Over	Temp
	#	s	V vs. Ref.	A	V	V	V	#	bits	deg C
	873	174.8	5.89970E-001	1.84943E-009	0.00000E+000	5.90000E-001	1.40900E-003	6	...........	-327.66
	874	175	5.79984E-001	1.42397E-009	0.00000E+000	5.80000E-001	1.41151E-003	6	...........	-327.66
	875	175.2	5.69963E-001	1.27498E-009	0.00000E+000	5.70000E-001	1.40033E-003	6	...........	-327.66
	876	175.4	5.59970E-001	1.21236E-009	0.00000E+000	5.60000E-001	1.40446E-003	6	...........	-327.66
	877	175.6	5.49953E-001	1.09834E-009	0.00000E+000	5.50000E-001	1.40603E-003	6	...........	-327.66
	878	175.8	5.39988E-001	7.77705E-010	0.00000E+000	5.40000E-001	1.40865E-003	6	...........	-327.66
	879	176	5.29966E-001	7.87109E-010	0.00000E+000	5.30000E-001	1.40928E-003	6	...........	-327.66
	880	176.2	5.19966E-001	7.37870E-010	0.00000E+000	5.20000E-001	1.40535E-003	6	...........	-327.66
	881	176.4	5.09980E-001	6.80327E-010	0.00000E+000	5.10000E-001	1.41352E-003	6	...........	-327.66
	882	176.6	4.99982E-001	6.23834E-010	0.00000E+000	5.00000E-001	1.40800E-003	6	...........	-327.66
	883	176.8	4.89939E-001	6.10561E-010	0.00000E+000	4.90000E-001	1.40191E-003	6	...........	-327.66
	884	177	4.79981E-001	5.36877E-010	0.00000E+000	4.80000E-001	1.40203E-003	6	...........	-327.66
	885	177.2	4.69948E-001	5.36711E-010	0.00000E+000	4.70000E-001	1.40163E-003	6	...........	-327.66
	886	177.4	4.59985E-001	4.85687E-010	0.00000E+000	4.60000E-001	1.40748E-003	6	...........	-327.66
	887	177.6	4.49955E-001	4.85337E-010	0.00000E+000	4.50000E-001	1.40626E-003	6	...........	-327.66
	888	177.8	4.39969E-001	4.53022E-010	0.00000E+000	4.40000E-001	1.40496E-003	6	...........	-327.66
	889	178	4.29988E-001	4.99877E-010	0.00000E+000	4.30000E-001	1.41288E-003	6	...........	-327.66
	890	178.2	4.19990E-001	4.66845E-010	0.00000E+000	4.20000E-001	1.40828E-003	6	...........	-327.66
	891	178.4	4.09971E-001	4.41984E-010	0.00000E+000	4.10000E-001	1.39588E-003	6	...........	-327.66
	892	178.6	3.99991E-001	3.67233E-010	0.00000E+000	4.00000E-001	1.39943E-003	6	...........	-327.66
	893	178.8	3.89967E-001	3.89926E-010	0.00000E+000	3.90000E-001	1.40888E-003	6	...........	-327.66
	894	179	3.79991E-001	3.23079E-010	0.00000E+000	3.80000E-001	1.40366E-003	6	...........	-327.66
	895	179.2	3.69973E-001	3.56561E-010	0.00000E+000	3.70000E-001	1.41056E-003	6	...........	-327.66
	896	179.4	3.59986E-001	3.03587E-010	0.00000E+000	3.60000E-001	1.40385E-003	6	...........	-327.66
	897	179.6	3.50000E-001	2.99735E-010	0.00000E+000	3.50000E-001	1.40646E-003	6	...........	-327.66
	898	179.8	3.39991E-001	2.37306E-010	0.00000E+000	3.40000E-001	1.40591E-003	6	...........	-327.66
	899	180	3.29997E-001	2.64469E-010	0.00000E+000	3.30000E-001	1.40134E-003	6	...........	-327.66
	900	180.2	3.19984E-001	1.93970E-010	0.00000E+000	3.20000E-001	1.39893E-003	6	...........	-327.66