File: Test_Data_Files/20250509_IF0011_IIA42_PBSair_E04_C_CV50_PEDOT.DTA
EXPLAIN
TAG	CV
TITLE	LABEL	CV50	Test Identifier
DATE	LABEL	5/9/2025	Date
TIME	LABEL	14:53:43	Time
NOTES	NOTES	1	Notes...

PSTAT	PSTAT	REF600P-43058	Potentiostat
VINIT	POTEN	0.00000E+000	T	Initial E (V)
VLIMIT1	POTEN	-9.00000E-001	F	Scan Limit 1 (V)
VLIMIT2	POTEN	6.00000E-001	F	Scan Limit 2 (V)
VFINAL	POTEN	0.00000E+000	T	Final E (V)
SCANRATE	QUANT	4.99999E+001	Scan Rate (mV/s)
STEPSIZE	QUANT	1.00000E+001	Step Size (mV)
CYCLES	IQUANT	3	Cycles (#)
IMODE	SELECTOR	1	I/E Range Mode
IRANGE	QUANT	1.00000E-003	Max Current (mA)
AREA	QUANT	1.00000E+000	Sample Area (cm^2)
EQDELAY	QUANT	5.00000E+000	Equil. Time (s)
IRCOMP	SELECTOR	0	IRComp
PFCOR	QUANT	5.00000E+001	PF Corr. (ohm)
SAMPLINGMODE	SELECTOR	2	Sampling Mode
EOC	QUANT	0.1683657	Open Circuit (V)
ELECTRODETYPE	SELECTOR	0	Electrode Type
STRIPPING	TOGGLE	F	Used for Stripping
SEQUENCER	TOGGLE	TRUE	Run as Sequence
PSTATMODEL	IQUANT	7	Pstat Model
PSTATSECTION	LABEL	REF600P-43058	Pstat Section
PSTATSERIALNO	LABEL	43058	Pstat Serial Number
CTRLMODE	IQUANT	1	Control Mode
ELECTROMETER	IQUANT	0	RE=0 or CS=1
IESTAB	IQUANT	2	I/E Stability
CASPEED	IQUANT	4	Control Amp Speed
CONVENTION	IQUANT	1	Current Convention
ICHRANGE	IQUANT	2	Ich Range
ICHRANGEMODE	TOGGLE	F	Ich Auto Range
ICHOFFSETENABLE	TOGGLE	F	Ich Offset Enable
ICHOFFSET	QUANT	0	Ich Offset (V)
ICHFILTER	IQUANT	2	Ich Filter
VCHRANGE	IQUANT	2	Vch Range
VCHRANGEMODE	TOGGLE	F	Vch Auto Range
VCHOFFSETENABLE	TOGGLE	F	Vch Offset Enable
VCHOFFSET	QUANT	0	Vch Offset (V)
VCHFILTER	IQUANT	2	Vch Filter
ACHRANGE	IQUANT	2	Ach Range
ACHOFFSETENABLE	TOGGLE	F	Ach Offset Enable
ACHOFFSET	QUANT	0	Ach Offset (V)
ACHFILTER	IQUANT	1	Ach Filter
IERANGELOWERLIMIT	IQUANT	1	I/E Range Lower Limit
IERANGEMODE	TOGGLE	F	I/E AutoRange
IERANGE	IQUANT	6	I/E Range
POSFEEDENABLE	TOGGLE	F	Positive Feedback IR Comp
POSFEEDRESISTANCE	QUANT	0	Positive Feedback Resistance (ohm)
ACHSELECT	IQUANT	4	Ach Select
SENSECABLEID	IQUANT	7	Sense Cable ID
PWRCABLEID	IQUANT	7	Power Cable ID
DCCALDATE	LABEL	5/8/2025	DC Calibration Date
ACCALDATE	LABEL	5/8/2025	AC Calibration Date
THERMOSELECT	IQUANT	1	Thermo Select
FRAMEWORKVERSION	LABEL	7.10.4	Framework Version
INSTRUMENTVERSION	LABEL	5.01	Instrument Version
COMMVERSION	LABEL	5.10	Communications Version
CPUPLDVERSION	LABEL	6.00	CPU PLD Version
CTRLPLDVERSION	LABEL	3.21	CTRL PLD Version
PSTATPLDVERSION	LABEL	0.00	PSTAT PLD Version
CURVE1	TABLE
	Pt	T	Vf	Im	Vu	Sig	Ach	IERange	Over	Temp
	#	s	V vs. Ref.	A	V	V	V	#	bits	deg C
	0	0.2	1.68459E-001	4.91440E-010	0.00000E+000	1.68350E-001	1.43556E-003	6	...........	-327.66
	1	0.4	1.58375E-001	-3.00564E-008	0.00000E+000	1.58350E-001	1.44109E-003	6	...........	-327.66
	2	0.6	1.48401E-001	-3.13491E-008	0.00000E+000	1.48350E-001	1.43474E-003	6	...........	-327.66
	3	0.8	1.38450E-001	-3.17448E-008	0.00000E+000	1.38350E-001	1.44092E-003	6	...........	-327.66
	4	1	1.28395E-001	-3.20050E-008	0.00000E+000	1.28350E-001	1.42147E-003	6	...........	-327.66
	5	1.2	1.18389E-001	-3.22991E-008	0.00000E+000	1.18350E-001	1.44056E-003	6	...........	-327.66
	6	1.4	1.08390E-001	-3.25921E-008	0.00000E+000	1.08350E-001	1.42652E-003	6	...........	-327.66
	7	1.6	9.83971E-002	-3.28591E-008	0.00000E+000	9.83500E-002	1.43437E-003	6	...........	-327.66
	8	1.8	8.84110E-002	-3.30901E-008	0.00000E+000	8.83500E-002	1.44222E-003	6	...........	-327.66
	9	2	7.83748E-002	-3.34469E-008	0.00000E+000	7.83500E-002	1.42709E-003	6	...........	-327.66
	10	2.2	6.83986E-002	-3.37668E-008	0.00000E+000	6.83500E-002	1.44541E-003	6	...........	-327.66
	11	2.4	5.84018E-002	-3.41000E-008	0.00000E+000	5.83500E-002	1.44167E-003	6	...........	-327.66
	12	2.6	4.84018E-002	-3.43037E-008	0.00000E+000	4.83500E-002	1.43367E-003	6	...........	-327.66
	13	2.8	3.83936E-002	-3.47416E-008	0.00000E+000	3.83500E-002	1.43214E-003	6	...........	-327.66
	14	3	2.83893E-002	-3.51274E-008	0.00000E+000	2.83500E-002	1.43542E-003	6	...........	-327.66
	15	3.2	1.83942E-002	-3.55479E-008	0.00000E+000	1.83500E-002	1.43601E-003	6	...........	-327.66
	16	3.4	8.41257E-003	-3.58356E-008	0.00000E+000	8.34998E-003	1.43552E-003	6	...........	-327.66
	17	3.6	-1.61752E-003	-3.62802E-008	0.00000E+000	-1.65001E-003	1.44486E-003	6	...........	-327.66
	18	3.8	-1.15210E-002	-3.66575E-008	0.00000E+000	-1.16500E-002	1.43784E-003	6	...........	-327.66
	19	4	-2.15760E-002	-3.71289E-008	0.00000E+000	-2.16500E-002	1.44658E-003	6	...........	-327.66
	20	4.2	-3.16048E-002	-3.75176E-008	0.00000E+000	-3.16500E-002	1.43227E-003	6	...........	-327.66
	21	4.4	-4.15886E-002	-3.79868E-008	0.00000E+000	-4.16500E-002	1.42944E-003	6	...........	-327.66
	22	4.6	-5.16236E-002	-3.85038E-008	0.00000E+000	-5.16500E-002	1.44381E-003	6	...........	-327.66
	23	4.8	-6.15708E-002	-3.89296E-008	0.00000E+000	-6.16500E-002	1.44059E-003	6	...........	-327.66
	24	5	-7.16118E-002	-3.94501E-008	0.00000E+000	-7.16500E-002	1.43772E-003	6	...........	-327.66
	25	5.2	-8.16187E-002	-3.99479E-008	0.00000E+000	-8.16500E-002	1.43376E-003	6	...........	-327.66
	26	5.4	-9.16028E-002	-4.05236E-008	0.00000E+000	-9.16500E-002	1.44599E-003	6	...........	-327.66
	27	5.6	-1.01589E-001	-4.10509E-008	0.00000E+000	-1.01650E-001	1.44321E-003	6	...........	-327.66
	28	5.8	-1.11606E-001	-4.15414E-008	0.00000E+000	-1.11650E-001	1.43801E-003	6	...........	-327.66
	29	6	-1.21627E-001	-4.22231E-008	0.00000E+000	-1.21650E-001	1.43559E-003	6	...........	-327.66
	30	6.2	-1.31636E-001	-4.27347E-008	0.00000E+000	-1.31650E-001	1.43372E-003	6	...........	-327.66
	31	6.4	-1.41552E-001	-4.33592E-008	0.00000E+000	-1.41650E-001	1.43844E-003	6	...........	-327.66
	32	6.6	-1.51627E-001	-4.39699E-008	0.00000E+000	-1.51650E-001	1.43140E-003	6	...........	-327.66
	33	6.8	-1.61629E-001	-4.46756E-008	0.00000E+000	-1.61650E-001	1.44221E-003	6	...........	-327.66
	34	7	-1.71618E-001	-4.53076E-008	0.00000E+000	-1.71650E-001	1.43611E-003	6	...........	-327.66
	35	7.2	-1.81597E-001	-4.59950E-008	0.00000E+000	-1.81650E-001	1.44037E-003	6	...........	-327.66
	36	7.4	-1.91595E-001	-4.66683E-008	0.00000E+000	-1.91650E-001	1.43134E-003	6	...........	-327.66
	37	7.6	-2.01635E-001	-4.74444E-008	0.00000E+000	-2.01650E-001	1.42949E-003	6	...........	-327.66
	38	7.8	-2.11600E-001	-4.82094E-008	0.00000E+000	-2.11650E-001	1.43701E-003	6	...........	-327.66
	39	8	-2.21536E-001	-4.89048E-008	0.00000E+000	-2.21650E-001	1.43747E-003	6	...........	-327.66
	40	8.2	-2.31602E-001	-4.96867E-008	0.00000E+000	-2.31650E-001	1.43966E-003	6	...........	-327.66
	41	8.4	-2.41592E-001	-5.04447E-008	0.00000E+000	-2.41650E-001	1.43984E-003	6	...........	-327.66
	42	8.6	-2.51611E-001	-5.13156E-008	0.00000E+000	-2.51650E-001	1.44271E-003	6	...........	-327.66
	43	8.8	-2.61599E-001	-5.21328E-008	0.00000E+000	-2.61650E-001	1.43927E-003	6	...........	-327.66
	44	9	-2.71573E-001	-5.28712E-008	0.00000E+000	-2.71650E-001	1.42569E-003	6	...........	-327.66
	45	9.2	-2.81626E-001	-5.37347E-008	0.00000E+000	-2.81650E-001	1.42569E-003	6	...........	-327.66
	46	9.4	-2.91546E-001	-5.45455E-008	0.00000E+000	-2.91650E-001	1.43432E-003	6	...........	-327.66
	47	9.6	-3.01571E-001	-5.54381E-008	0.00000E+000	-3.01650E-001	1.43829E-003	6	...........	-327.66
	48	9.8	-3.11596E-001	-5.62291E-008	0.00000E+000	-3.11650E-001	1.43370E-003	6	...........	-327.66
	49	10	-3.21572E-001	-5.71649E-008	0.00000E+000	-3.21650E-001	1.43432E-003	6	...........	-327.66
	50	10.2	-3.31617E-001	-5.80553E-008	0.00000E+000	-3.31650E-001	1.43961E-003	6	...........	-327.66
	51	10.4	-3.41598E-001	-5.90139E-008	0.00000E+000	-3.41650E-001	1.43914E-003	6	...........	-327.66
	52	10.6	-3.51587E-001	-5.99052E-008	0.00000E+000	-3.51650E-001	1.43049E-003	6	...........	-327.66
	53	10.8	-3.61619E-001	-6.08510E-008	0.00000E+000	-3.61650E-001	1.42885E-003	6	...........	-327.66
	54	11	-3.71568E-001	-6.18277E-008	0.00000E+000	-3.71650E-001	1.42972E-003	6	...........	-327.66
	55	11.2	-3.81587E-001	-6.27885E-008	0.00000E+000	-3.81650E-001	1.43376E-003	6	...........	-327.66
	56	11.4	-3.91582E-001	-6.37387E-008	0.00000E+000	-3.91650E-001	1.43971E-003	6	...........	-327.66
	57	11.6	-4.01578E-001	-6.46877E-008	0.00000E+000	-4.01650E-001	1.42995E-003	6	...........	-327.66
	58	11.8	-4.11583E-001	-6.56708E-008	0.00000E+000	-4.11650E-001	1.44222E-003	6	...........	-327.66
	59	12	-4.21526E-001	-6.66217E-008	0.00000E+000	-4.21650E-001	1.44282E-003	6	...........	-327.66
	60	12.2	-4.31553E-001	-6.75114E-008	0.00000E+000	-4.31650E-001	1.43230E-003	6	...........	-327.66
	61	12.4	-4.41585E-001	-6.85516E-008	0.00000E+000	-4.41650E-001	1.43697E-003	6	...........	-327.66
	62	12.6	-4.51542E-001	-6.94953E-008	0.00000E+000	-4.51650E-001	1.43776E-003	6	...........	-327.66
	63	12.8	-4.61548E-001	-7.05198E-008	0.00000E+000	-4.61650E-001	1.43604E-003	6	...........	-327.66
	64	13	-4.71450E-001	-7.15215E-008	0.00000E+000	-4.71650E-001	1.44613E-003	6	...........	-327.66
	65	13.2	-4.81564E-001	-7.26091E-008	0.00000E+000	-4.81650E-001	1.43986E-003	6	...........	-327.66
	66	13.4	-4.91566E-001	-7.35820E-008	0.00000E+000	-4.91650E-001	1.44329E-003	6	...........	-327.66
	67	13.6	-5.01494E-001	-7.47143E-008	0.00000E+000	-5.01650E-001	1.43164E-003	6	...........	-327.66
	68	13.8	-5.11563E-001	-7.57885E-008	0.00000E+000	-5.11650E-001	1.44534E-003	6	...........	-327.66
	69	14	-5.21582E-001	-7.69072E-008	0.00000E+000	-5.21650E-001	1.44378E-003	6	...........	-327.66
	70	14.2	-5.31573E-001	-7.81321E-008	0.00000E+000	-5.31650E-001	1.43872E-003	6	...........	-327.66
	71	14.4	-5.41565E-001	-7.90790E-008	0.00000E+000	-5.41650E-001	1.43904E-003	6	...........	-327.66
	72	14.6	-5.51540E-001	-8.02548E-008	0.00000E+000	-5.51650E-001	1.43782E-003	6	...........	-327.66
	73	14.8	-5.61592E-001	-8.14381E-008	0.00000E+000	-5.61650E-001	1.44721E-003	6	...........	-327.66
	74	15	-5.71558E-001	-8.25782E-008	0.00000E+000	-5.71650E-001	1.44081E-003	6	...........	-327.66
	75	15.2	-5.81541E-001	-8.36446E-008	0.00000E+000	-5.81650E-001	1.44002E-003	6	...........	-327.66
	76	15.4	-5.91565E-001	-8.46323E-008	0.00000E+000	-5.91650E-001	1.42895E-003	6	...........	-327.66
	77	15.6	-6.01598E-001	-8.57157E-008	0.00000E+000	-6.01650E-001	1.43981E-003	6	...........	-327.66
	78	15.8	-6.11584E-001	-8.66610E-008	0.00000E+000	-6.11650E-001	1.44403E-003	6	...........	-327.66
	79	16	-6.21560E-001	-8.75851E-008	0.00000E+000	-6.21650E-001	1.44523E-003	6	...........	-327.66
	80	16.2	-6.31507E-001	-8.82239E-008	0.00000E+000	-6.31650E-001	1.44351E-003	6	...........	-327.66
	81	16.4	-6.41581E-001	-8.89601E-008	0.00000E+000	-6.41650E-001	1.44668E-003	6	...........	-327.66
	82	16.6	-6.51342E-001	-8.94878E-008	0.00000E+000	-6.51650E-001	1.44531E-003	6	...........	-327.66
	83	16.8	-6.61538E-001	-8.99088E-008	0.00000E+000	-6.61650E-001	1.45518E-003	6	...........	-327.66
	84	17	-6.71482E-001	-8.99426E-008	0.00000E+000	-6.71650E-001	1.44769E-003	6	...........	-327.66
	85	17.2	-6.81513E-001	-8.96737E-008	0.00000E+000	-6.81650E-001	1.43536E-003	6	...........	-327.66
	86	17.4	-6.91565E-001	-8.89779E-008	0.00000E+000	-6.91650E-001	1.43417E-003	6	...........	-327.66
	87	17.6	-7.01521E-001	-8.77521E-008	0.00000E+000	-7.01650E-001	1.44292E-003	6	...........	-327.66
	88	17.8	-7.11537E-001	-8.59675E-008	0.00000E+000	-7.11650E-001	1.44723E-003	6	...........	-327.66
	89	18	-7.21592E-001	-8.36441E-008	0.00000E+000	-7.21650E-001	1.44789E-003	6	...........	-327.66
	90	18.2	-7.31517E-001	-8.08374E-008	0.00000E+000	-7.31650E-001	1.44516E-003	6	...........	-327.66
	91	18.4	-7.41569E-001	-7.76438E-008	0.00000E+000	-7.41650E-001	1.43946E-003	6	...........	-327.66
	92	18.6	-7.51489E-001	-7.41494E-008	0.00000E+000	-7.51650E-001	1.44046E-003	6	...........	-327.66
	93	18.8	-7.61556E-001	-7.03436E-008	0.00000E+000	-7.61650E-001	1.43344E-003	6	...........	-327.66
	94	19	-7.71553E-001	-6.63000E-008	0.00000E+000	-7.71650E-001	1.43227E-003	6	...........	-327.66
	95	19.2	-7.81475E-001	-6.21664E-008	0.00000E+000	-7.81650E-001	1.44778E-003	6	...........	-327.66
	96	19.4	-7.91537E-001	-5.81173E-008	0.00000E+000	-7.91650E-001	1.44227E-003	6	...........	-327.66
	97	19.6	-8.01603E-001	-5.42895E-008	0.00000E+000	-8.01650E-001	1.44839E-003	6	...........	-327.66
	98	19.8	-8.11521E-001	-5.05706E-008	0.00000E+000	-8.11650E-001	1.44249E-003	6	...........	-327.66
	99	20	-8.21534E-001	-4.73569E-008	0.00000E+000	-8.21650E-001	1.45911E-003	6	...........	-327.66
	100	20.2	-8.31475E-001	-4.42001E-008	0.00000E+000	-8.31650E-001	1.44893E-003	6	...........	-327.66
	101	20.4	-8.41574E-001	-4.14020E-008	0.00000E+000	-8.41650E-001	1.45254E-003	6	...........	-327.66
	102	20.6	-8.51559E-001	-3.89587E-008	0.00000E+000	-8.51650E-001	1.44299E-003	6	...........	-327.66
	103	20.8	-8.61467E-001	-3.63732E-008	0.00000E+000	-8.61650E-001	1.45926E-003	6	...........	-327.66
	104	21	-8.71517E-001	-3.44042E-008	0.00000E+000	-8.71650E-001	1.45833E-003	6	...........	-327.66
	105	21.2	-8.81530E-001	-3.27908E-008	0.00000E+000	-8.81650E-001	1.45516E-003	6	...........	-327.66
	106	21.4	-8.91521E-001	-3.11591E-008	0.00000E+000	-8.91650E-001	1.45466E-003	6	...........	-327.66
	107	21.6	-9.01565E-001	-2.97075E-008	0.00000E+000	-9.01650E-001	1.45396E-003	6	...........	-327.66
	108	21.8	-8.91598E-001	-2.53460E-008	0.00000E+000	-8.91650E-001	1.46780E-003	6	...........	-327.66
	109	22	-8.81583E-001	-2.30668E-008	0.00000E+000	-8.81650E-001	1.45768E-003	6	...........	-327.66
	110	22.2	-8.71553E-001	-2.12963E-008	0.00000E+000	-8.71650E-001	1.46008E-003	6	...........	-327.66
	111	22.4	-8.61570E-001	-1.97671E-008	0.00000E+000	-8.61650E-001	1.45565E-003	6	...........	-327.66
	112	22.6	-8.51604E-001	-1.83317E-008	0.00000E+000	-8.51650E-001	1.45003E-003	6	...........	-327.66
	113	22.8	-8.41621E-001	-1.68988E-008	0.00000E+000	-8.41650E-001	1.44499E-003	6	...........	-327.66
	114	23	-8.31518E-001	-1.54613E-008	0.00000E+000	-8.31650E-001	1.44443E-003	6	...........	-327.66
	115	23.2	-8.21609E-001	-1.40252E-008	0.00000E+000	-8.21650E-001	1.45810E-003	6	...........	-327.66
	116	23.4	-8.11593E-001	-1.23938E-008	0.00000E+000	-8.11650E-001	1.45626E-003	6	...........	-327.66
	117	23.6	-8.01608E-001	-1.06565E-008	0.00000E+000	-8.01650E-001	1.45695E-003	6	...........	-327.66
	118	23.8	-7.91584E-001	-8.65541E-009	0.00000E+000	-7.91650E-001	1.45638E-003	6	...........	-327.66
	119	24	-7.81497E-001	-6.56239E-009	0.00000E+000	-7.81650E-001	1.46912E-003	6	...........	-327.66
	120	24.2	-7.71602E-001	-4.05120E-009	0.00000E+000	-7.71650E-001	1.45711E-003	6	...........	-327.66
	121	24.4	-7.61610E-001	-1.25261E-009	0.00000E+000	-7.61650E-001	1.44104E-003	6	...........	-327.66
	122	24.6	-7.51561E-001	2.00180E-009	0.00000E+000	-7.51650E-001	1.46165E-003	6	...........	-327.66
	123	24.8	-7.41612E-001	5.53091E-009	0.00000E+000	-7.41650E-001	1.45535E-003	6	...........	-327.66
	124	25	-7.31574E-001	9.43011E-009	0.00000E+000	-7.31650E-001	1.46036E-003	6	...........	-327.66
	125	25.2	-7.21624E-001	1.35714E-008	0.00000E+000	-7.21650E-001	1.45458E-003	6	...........	-327.66
	126	25.4	-7.11604E-001	1.78355E-008	0.00000E+000	-7.11650E-001	1.45993E-003	6	...........	-327.66
	127	25.6	-7.01589E-001	2.17382E-008	0.00000E+000	-7.01650E-001	1.46382E-003	6	...........	-327.66
	128	25.8	-6.91602E-001	2.51589E-008	0.00000E+000	-6.91650E-001	1.45069E-003	6	...........	-327.66
	129	26	-6.81597E-001	2.76470E-008	0.00000E+000	-6.81650E-001	1.44503E-003	6	...........	-327.66
	130	26.2	-6.71542E-001	2.90559E-008	0.00000E+000	-6.71650E-001	1.45344E-003	6	...........	-327.66
	131	26.4	-6.61606E-001	2.94986E-008	0.00000E+000	-6.61650E-001	1.46166E-003	6	...........	-327.66
	132	26.6	-6.51519E-001	2.96470E-008	0.00000E+000	-6.51650E-001	1.46005E-003	6	...........	-327.66
	133	26.8	-6.41617E-001	2.95832E-008	0.00000E+000	-6.41650E-001	1.45936E-003	6	...........	-327.66
	134	27	-6.31585E-001	2.95792E-008	0.00000E+000	-6.31650E-001	1.45201E-003	6	...........	-327.66
	135	27.2	-6.21611E-001	2.95141E-008	0.00000E+000	-6.21650E-001	1.45368E-003	6	...........	-327.66
	136	27.4	-6.11629E-001	2.97215E-008	0.00000E+000	-6.11650E-001	1.44988E-003	6	...........	-327.66
	137	27.6	-6.01631E-001	2.99452E-008	0.00000E+000	-6.01650E-001	1.44426E-003	6	...........	-327.66
	138	27.8	-5.91607E-001	3.02369E-008	0.00000E+000	-5.91650E-001	1.44751E-003	6	...........	-327.66
	139	28	-5.81608E-001	3.05349E-008	0.00000E+000	-5.81650E-001	1.45289E-003	6	...........	-327.66
	140	28.2	-5.71613E-001	3.09210E-008	0.00000E+000	-5.71650E-001	1.45681E-003	6	...........	-327.66
	141	28.4	-5.61660E-001	3.13507E-008	0.00000E+000	-5.61650E-001	1.45571E-003	6	...........	-327.66
	142	28.6	-5.51605E-001	3.18133E-008	0.00000E+000	-5.51650E-001	1.45286E-003	6	...........	-327.66
	143	28.8	-5.41620E-001	3.22981E-008	0.00000E+000	-5.41650E-001	1.45403E-003	6	...........	-327.66
	144	29	-5.31641E-001	3.27513E-008	0.00000E+000	-5.31650E-001	1.45351E-003	6	...........	-327.66
	145	29.2	-5.21647E-001	3.33164E-008	0.00000E+000	-5.21650E-001	1.44699E-003	6	...........	-327.66
	146	29.4	-5.11628E-001	3.39387E-008	0.00000E+000	-5.11650E-001	1.44898E-003	6	...........	-327.66
	147	29.6	-5.01577E-001	3.44898E-008	0.00000E+000	-5.01650E-001	1.45870E-003	6	...........	-327.66
	148	29.8	-4.91621E-001	3.50807E-008	0.00000E+000	-4.91650E-001	1.45276E-003	6	...........	-327.66
	149	30	-4.81633E-001	3.55970E-008	0.00000E+000	-4.81650E-001	1.45511E-003	6	...........	-327.66
	150	30.2	-4.71551E-001	3.62551E-008	0.00000E+000	-4.71650E-001	1.45500E-003	6	...........	-327.66
	151	30.4	-4.61612E-001	3.69431E-008	0.00000E+000	-4.61650E-001	1.44438E-003	6	...........	-327.66
	152	30.6	-4.51617E-001	3.75864E-008	0.00000E+000	-4.51650E-001	1.44633E-003	6	...........	-327.66
	153	30.8	-4.41633E-001	3.81292E-008	0.00000E+000	-4.41650E-001	1.44593E-003	6	...........	-327.66
	154	31	-4.31632E-001	3.88744E-008	0.00000E+000	-4.31650E-001	1.44167E-003	6	...........	-327.66
	155	31.2	-4.21603E-001	3.94916E-008	0.00000E+000	-4.21650E-001	1.45895E-003	6	...........	-327.66
	156	31.4	-4.11636E-001	4.01523E-008	0.00000E+000	-4.11650E-001	1.45028E-003	6	...........	-327.66
	157	31.6	-4.01644E-001	4.08488E-008	0.00000E+000	-4.01650E-001	1.44698E-003	6	...........	-327.66
	158	31.8	-3.91632E-001	4.15256E-008	0.00000E+000	-3.91650E-001	1.44904E-003	6	...........	-327.66
	159	32	-3.81625E-001	4.21463E-008	0.00000E+000	-3.81650E-001	1.43877E-003	6	...........	-327.66
	160	32.2	-3.71639E-001	4.27591E-008	0.00000E+000	-3.71650E-001	1.44658E-003	6	...........	-327.66
	161	32.4	-3.61640E-001	4.34266E-008	0.00000E+000	-3.61650E-001	1.43295E-003	6	...........	-327.66
	162	32.6	-3.51645E-001	4.40045E-008	0.00000E+000	-3.51650E-001	1.44221E-003	6	...........	-327.66
	163	32.8	-3.41628E-001	4.45108E-008	0.00000E+000	-3.41650E-001	1.44523E-003	6	...........	-327.66
	164	33	-3.31653E-001	4.50893E-008	0.00000E+000	-3.31650E-001	1.44874E-003	6	...........	-327.66
	165	33.2	-3.21636E-001	4.56206E-008	0.00000E+000	-3.21650E-001	1.45166E-003	6	...........	-327.66
	166	33.4	-3.11637E-001	4.61593E-008	0.00000E+000	-3.11650E-001	1.43872E-003	6	...........	-327.66
	167	33.6	-3.01617E-001	4.65046E-008	0.00000E+000	-3.01650E-001	1.43679E-003	6	...........	-327.66
	168	33.8	-2.91612E-001	4.69656E-008	0.00000E+000	-2.91650E-001	1.44369E-003	6	...........	-327.66
	169	34	-2.81661E-001	4.73878E-008	0.00000E+000	-2.81650E-001	1.43964E-003	6	...........	-327.66
	170	34.2	-2.71636E-001	4.78268E-008	0.00000E+000	-2.71650E-001	1.43552E-003	6	...........	-327.66
	171	34.4	-2.61623E-001	4.81070E-008	0.00000E+000	-2.61650E-001	1.43777E-003	6	...........	-327.66
	172	34.6	-2.51648E-001	4.84239E-008	0.00000E+000	-2.51650E-001	1.44132E-003	6	...........	-327.66
	173	34.8	-2.41665E-001	4.88260E-008	0.00000E+000	-2.41650E-001	1.44604E-003	6	...........	-327.66
	174	35	-2.31632E-001	4.92146E-008	0.00000E+000	-2.31650E-001	1.45455E-003	6	...........	-327.66
	175	35.2	-2.21591E-001	4.94479E-008	0.00000E+000	-2.21650E-001	1.44444E-003	6	...........	-327.66
	176	35.4	-2.11633E-001	4.96470E-008	0.00000E+000	-2.11650E-001	1.44219E-003	6	...........	-327.66
	177	35.6	-2.01675E-001	4.99290E-008	0.00000E+000	-2.01650E-001	1.43594E-003	6	...........	-327.66
	178	35.8	-1.91638E-001	5.03688E-008	0.00000E+000	-1.91650E-001	1.43521E-003	6	...........	-327.66
	179	36	-1.81627E-001	5.04685E-008	0.00000E+000	-1.81650E-001	1.44277E-003	6	...........	-327.66
	180	36.2	-1.71661E-001	5.07622E-008	0.00000E+000	-1.71650E-001	1.44711E-003	6	...........	-327.66
	181	36.4	-1.61650E-001	5.08102E-008	0.00000E+000	-1.61650E-001	1.43904E-003	6	...........	-327.66
	182	36.6	-1.51671E-001	5.10691E-008	0.00000E+000	-1.51650E-001	1.43602E-003	6	...........	-327.66
	183	36.8	-1.41590E-001	5.13855E-008	0.00000E+000	-1.41650E-001	1.44214E-003	6	...........	-327.66
	184	37	-1.31660E-001	5.15748E-008	0.00000E+000	-1.31650E-001	1.43547E-003	6	...........	-327.66
	185	37.2	-1.21670E-001	5.15659E-008	0.00000E+000	-1.21650E-001	1.43244E-003	6	...........	-327.66
	186	37.4	-1.11651E-001	5.18252E-008	0.00000E+000	-1.11650E-001	1.43646E-003	6	...........	-327.66
	187	37.6	-1.01622E-001	5.20369E-008	0.00000E+000	-1.01650E-001	1.44291E-003	6	...........	-327.66
	188	37.8	-9.16434E-002	5.22492E-008	0.00000E+000	-9.16500E-002	1.44723E-003	6	...........	-327.66
	189	38	-8.16451E-002	5.23697E-008	0.00000E+000	-8.16500E-002	1.43871E-003	6	...........	-327.66
	190	38.2	-7.16616E-002	5.23619E-008	0.00000E+000	-7.16500E-002	1.44381E-003	6	...........	-327.66
	191	38.4	-6.16139E-002	5.24841E-008	0.00000E+000	-6.16500E-002	1.44332E-003	6	...........	-327.66
	192	38.6	-5.16587E-002	5.26741E-008	0.00000E+000	-5.16500E-002	1.44284E-003	6	...........	-327.66
	193	38.8	-4.16346E-002	5.28213E-008	0.00000E+000	-4.16500E-002	1.43562E-003	6	...........	-327.66
	194	39	-3.16460E-002	5.28645E-008	0.00000E+000	-3.16500E-002	1.44413E-003	6	...........	-327.66
	195	39.2	-2.16245E-002	5.29072E-008	0.00000E+000	-2.16500E-002	1.44899E-003	6	...........	-327.66
	196	39.4	-1.15938E-002	5.30900E-008	0.00000E+000	-1.16500E-002	1.44719E-003	6	...........	-327.66
	197	39.6	-1.64762E-003	5.32028E-008	0.00000E+000	-1.65001E-003	1.44744E-003	6	...........	-327.66
	198	39.8	8.35928E-003	5.33573E-008	0.00000E+000	8.34998E-003	1.44483E-003	6	...........	-327.66
	199	40	1.83729E-002	5.33429E-008	0.00000E+000	1.83500E-002	1.44042E-003	6	...........	-327.66
	200	40.2	2.83736E-002	5.34842E-008	0.00000E+000	2.83500E-002	1.43089E-003	6	...........	-327.66
	201	40.4	3.83631E-002	5.36283E-008	0.00000E+000	3.83500E-002	1.43859E-003	6	...........	-327.66
	202	40.6	4.83781E-002	5.38005E-008	0.00000E+000	4.83500E-002	1.44331E-003	6	...........	-327.66
	203	40.8	5.83717E-002	5.37903E-008	0.00000E+000	5.83500E-002	1.44352E-003	6	...........	-327.66
	204	41	6.83817E-002	5.39562E-008	0.00000E+000	6.83500E-002	1.44566E-003	6	...........	-327.66
	205	41.2	7.83444E-002	5.40962E-008	0.00000E+000	7.83500E-002	1.43274E-003	6	...........	-327.66
	206	41.4	8.83532E-002	5.42816E-008	0.00000E+000	8.83500E-002	1.43942E-003	6	...........	-327.66
	207	41.6	9.83738E-002	5.43994E-008	0.00000E+000	9.83500E-002	1.43656E-003	6	...........	-327.66
	208	41.8	1.08365E-001	5.45877E-008	0.00000E+000	1.08350E-001	1.43631E-003	6	...........	-327.66
	209	42	1.18363E-001	5.47748E-008	0.00000E+000	1.18350E-001	1.43397E-003	6	...........	-327.66
	210	42.2	1.28375E-001	5.49543E-008	0.00000E+000	1.28350E-001	1.42307E-003	6	...........	-327.66
	211	42.4	1.38397E-001	5.50835E-008	0.00000E+000	1.38350E-001	1.44299E-003	6	...........	-327.66
	212	42.6	1.48382E-001	5.52588E-008	0.00000E+000	1.48350E-001	1.43762E-003	6	...........	-327.66
	213	42.8	1.58346E-001	5.54175E-008	0.00000E+000	1.58350E-001	1.44142E-003	6	...........	-327.66
	214	43	1.68225E-001	5.56143E-008	0.00000E+000	1.68350E-001	1.43262E-003	6	...........	-327.66
	215	43.2	1.78374E-001	5.56570E-008	0.00000E+000	1.78350E-001	1.43062E-003	6	...........	-327.66
	216	43.4	1.88354E-001	5.58562E-008	0.00000E+000	1.88350E-001	1.42927E-003	6	...........	-327.66
	217	43.6	1.98354E-001	5.59427E-008	0.00000E+000	1.98350E-001	1.43406E-003	6	...........	-327.66
	218	43.8	2.08347E-001	5.60997E-008	0.00000E+000	2.08350E-001	1.43084E-003	6	...........	-327.66
	219	44	2.18349E-001	5.61052E-008	0.00000E+000	2.18350E-001	1.43104E-003	6	...........	-327.66
	220	44.2	2.28368E-001	5.62263E-008	0.00000E+000	2.28350E-001	1.43906E-003	6	...........	-327.66
	221	44.4	2.38322E-001	5.63346E-008	0.00000E+000	2.38350E-001	1.42990E-003	6	...........	-327.66
	222	44.6	2.48363E-001	5.64776E-008	0.00000E+000	2.48350E-001	1.44037E-003	6	...........	-327.66
	223	44.8	2.58360E-001	5.65039E-008	0.00000E+000	2.58350E-001	1.42452E-003	6	...........	-327.66
	224	45	2.68315E-001	5.65745E-008	0.00000E+000	2.68350E-001	1.43170E-003	6	...........	-327.66
	225	45.2	2.78317E-001	5.67959E-008	0.00000E+000	2.78350E-001	1.42490E-003	6	...........	-327.66
	226	45.4	2.88330E-001	5.68885E-008	0.00000E+000	2.88350E-001	1.42377E-003	6	...........	-327.66
	227	45.6	2.98347E-001	5.70138E-008	0.00000E+000	2.98350E-001	1.43551E-003	6	...........	-327.66
	228	45.8	3.08346E-001	5.72166E-008	0.00000E+000	3.08350E-001	1.42885E-003	6	...........	-327.66
	229	46	3.18313E-001	5.74265E-008	0.00000E+000	3.18350E-001	1.43294E-003	6	...........	-327.66
	230	46.2	3.28363E-001	5.76200E-008	0.00000E+000	3.28350E-001	1.43202E-003	6	...........	-327.66
	231	46.4	3.38363E-001	5.77762E-008	0.00000E+000	3.38350E-001	1.43339E-003	6	...........	-327.66
	232	46.6	3.48365E-001	5.80163E-008	0.00000E+000	3.48350E-001	1.42880E-003	6	...........	-327.66
	233	46.8	3.58324E-001	5.83267E-008	0.00000E+000	3.58350E-001	1.43352E-003	6	...........	-327.66
	234	47	3.68331E-001	5.86487E-008	0.00000E+000	3.68350E-001	1.42575E-003	6	...........	-327.66
	235	47.2	3.78355E-001	5.89218E-008	0.00000E+000	3.78350E-001	1.43454E-003	6	...........	-327.66
	236	47.4	3.88338E-001	5.92054E-008	0.00000E+000	3.88350E-001	1.43839E-003	6	...........	-327.66
	237	47.6	3.98305E-001	5.96095E-008	0.00000E+000	3.98350E-001	1.44282E-003	6	...........	-327.66
	238	47.8	4.08352E-001	5.99755E-008	0.00000E+000	4.08350E-001	1.43676E-003	6	...........	-327.66
	239	48	4.18358E-001	6.03627E-008	0.00000E+000	4.18350E-001	1.44022E-003	6	...........	-327.66
	240	48.2	4.28362E-001	6.07481E-008	0.00000E+000	4.28350E-001	1.43587E-003	6	...........	-327.66
	241	48.4	4.38294E-001	6.11657E-008	0.00000E+000	4.38350E-001	1.42674E-003	6	...........	-327.66
	242	48.6	4.48351E-001	6.16034E-008	0.00000E+000	4.48350E-001	1.42954E-003	6	...........	-327.66
	243	48.8	4.58352E-001	6.20869E-008	0.00000E+000	4.58350E-001	1.43829E-003	6	...........	-327.66
	244	49	4.68303E-001	6.25790E-008	0.00000E+000	4.68350E-001	1.43754E-003	6	...........	-327.66
	245	49.2	4.78307E-001	6.30789E-008	0.00000E+000	4.78350E-001	1.43591E-003	6	...........	-327.66
	246	49.4	4.88317E-001	6.36182E-008	0.00000E+000	4.88350E-001	1.42519E-003	6	...........	-327.66
	247	49.6	4.98360E-001	6.40771E-008	0.00000E+000	4.98350E-001	1.43120E-003	6	...........	-327.66
	248	49.8	5.08333E-001	6.46201E-008	0.00000E+000	5.08350E-001	1.43135E-003	6	...........	-327.66
	249	50	5.18291E-001	6.51832E-008	0.00000E+000	5.18350E-001	1.42237E-003	6	...........	-327.66
	250	50.2	5.28340E-001	6.58478E-008	0.00000E+000	5.28350E-001	1.43137E-003	6	...........	-327.66
	251	50.4	5.38355E-001	6.63867E-008	0.00000E+000	5.38350E-001	1.43612E-003	6	...........	-327.66
	252	50.6	5.48308E-001	6.70866E-008	0.00000E+000	5.48350E-001	1.43857E-003	6	...........	-327.66
	253	50.8	5.58326E-001	6.78096E-008	0.00000E+000	5.58350E-001	1.43904E-003	6	...........	-327.66
	254	51	5.68305E-001	6.85727E-008	0.00000E+000	5.68350E-001	1.43717E-003	6	...........	-327.66
	255	51.2	5.78364E-001	6.93881E-008	0.00000E+000	5.78350E-001	1.43180E-003	6	...........	-327.66
	256	51.4	5.88327E-001	7.03193E-008	0.00000E+000	5.88350E-001	1.42880E-003	6	...........	-327.66
	257	51.6	5.98301E-001	7.13310E-008	0.00000E+000	5.98350E-001	1.42887E-003	6	...........	-327.66
CURVE2	TABLE
	Pt	T	Vf	Im	Vu	Sig	Ach	IERange	Over	Temp
	#	s	V vs. Ref.	A	V	V	V	#	bits	deg C
	258	51.8	5.89976E-001	-5.08971E-010	0.00000E+000	5.90000E-001	1.43562E-003	6	...........	-327.66
	259	52	5.79990E-001	-1.38420E-008	0.00000E+000	5.80000E-001	1.43752E-003	6	...........	-327.66
	260	52.2	5.69984E-001	-1.85043E-008	0.00000E+000	5.70000E-001	1.43436E-003	6	...........	-327.66
	261	52.4	5.59974E-001	-2.17728E-008	0.00000E+000	5.60000E-001	1.42617E-003	6	...........	-327.66
	262	52.6	5.49984E-001	-2.41195E-008	0.00000E+000	5.50000E-001	1.42852E-003	6	...........	-327.66
	263	52.8	5.39995E-001	-2.59959E-008	0.00000E+000	5.40000E-001	1.43217E-003	6	...........	-327.66
	264	53	5.30007E-001	-2.73788E-008	0.00000E+000	5.30000E-001	1.43686E-003	6	...........	-327.66
	265	53.2	5.19971E-001	-2.85097E-008	0.00000E+000	5.20000E-001	1.43646E-003	6	...........	-327.66
	266	53.4	5.09973E-001	-2.94501E-008	0.00000E+000	5.10000E-001	1.44049E-003	6	...........	-327.66
	267	53.6	5.00008E-001	-3.02922E-008	0.00000E+000	5.00000E-001	1.44081E-003	6	...........	-327.66
	268	53.8	4.89974E-001	-3.09696E-008	0.00000E+000	4.90000E-001	1.43127E-003	6	...........	-327.66
	269	54	4.79948E-001	-3.15978E-008	0.00000E+000	4.80000E-001	1.42585E-003	6	...........	-327.66
	270	54.2	4.69973E-001	-3.20755E-008	0.00000E+000	4.70000E-001	1.43199E-003	6	...........	-327.66
	271	54.4	4.59995E-001	-3.26179E-008	0.00000E+000	4.60000E-001	1.43242E-003	6	...........	-327.66
	272	54.6	4.49995E-001	-3.29818E-008	0.00000E+000	4.50000E-001	1.43996E-003	6	...........	-327.66
	273	54.8	4.39940E-001	-3.34454E-008	0.00000E+000	4.40000E-001	1.43682E-003	6	...........	-327.66
	274	55	4.29991E-001	-3.37527E-008	0.00000E+000	4.30000E-001	1.44122E-003	6	...........	-327.66
	275	55.2	4.20035E-001	-3.41295E-008	0.00000E+000	4.20000E-001	1.43836E-003	6	...........	-327.66
	276	55.4	4.09977E-001	-3.43842E-008	0.00000E+000	4.10000E-001	1.42272E-003	6	...........	-327.66
	277	55.6	3.99985E-001	-3.47354E-008	0.00000E+000	4.00000E-001	1.43180E-003	6	...........	-327.66
	278	55.8	3.89988E-001	-3.49983E-008	0.00000E+000	3.90000E-001	1.43817E-003	6	...........	-327.66
	279	56	3.80000E-001	-3.52132E-008	0.00000E+000	3.80000E-001	1.44136E-003	6	...........	-327.66
	280	56.2	3.70021E-001	-3.54016E-008	0.00000E+000	3.70000E-001	1.44282E-003	6	...........	-327.66
	281	56.4	3.59978E-001	-3.57001E-008	0.00000E+000	3.60000E-001	1.44833E-003	6	...........	-327.66
	282	56.6	3.50018E-001	-3.59155E-008	0.00000E+000	3.50000E-001	1.44157E-003	6	...........	-327.66
	283	56.8	3.40012E-001	-3.61876E-008	0.00000E+000	3.40000E-001	1.44706E-003	6	...........	-327.66
	284	57	3.30010E-001	-3.62625E-008	0.00000E+000	3.30000E-001	1.42769E-003	6	...........	-327.66
	285	57.2	3.19992E-001	-3.65092E-008	0.00000E+000	3.20000E-001	1.43360E-003	6	...........	-327.66
	286	57.4	3.09994E-001	-3.67410E-008	0.00000E+000	3.10000E-001	1.43819E-003	6	...........	-327.66
	287	57.6	3.00000E-001	-3.69644E-008	0.00000E+000	3.00000E-001	1.43491E-003	6	...........	-327.66
	288	57.8	2.90006E-001	-3.70280E-008	0.00000E+000	2.90000E-001	1.44274E-003	6	...........	-327.66
	289	58	2.79982E-001	-3.72828E-008	0.00000E+000	2.80000E-001	1.44524E-003	6	...........	-327.66
	290	58.2	2.70072E-001	-3.74263E-008	0.00000E+000	2.70000E-001	1.43232E-003	6	...........	-327.66
	291	58.4	2.60003E-001	-3.76863E-008	0.00000E+000	2.60000E-001	1.44347E-003	6	...........	-327.66
	292	58.6	2.50043E-001	-3.77344E-008	0.00000E+000	2.50000E-001	1.43611E-003	6	...........	-327.66
	293	58.8	2.39999E-001	-3.80169E-008	0.00000E+000	2.40000E-001	1.43596E-003	6	...........	-327.66
	294	59	2.29998E-001	-3.81767E-008	0.00000E+000	2.30000E-001	1.44663E-003	6	...........	-327.66
	295	59.2	2.20006E-001	-3.83761E-008	0.00000E+000	2.20000E-001	1.43816E-003	6	...........	-327.66
	296	59.4	2.10002E-001	-3.85384E-008	0.00000E+000	2.10000E-001	1.45179E-003	6	...........	-327.66
	297	59.6	2.00002E-001	-3.86768E-008	0.00000E+000	2.00000E-001	1.44169E-003	6	...........	-327.66
	298	59.8	1.90048E-001	-3.88593E-008	0.00000E+000	1.90000E-001	1.44311E-003	6	...........	-327.66
	299	60	1.80017E-001	-3.90540E-008	0.00000E+000	1.80000E-001	1.43934E-003	6	...........	-327.66
	300	60.2	1.70098E-001	-3.92028E-008	0.00000E+000	1.70000E-001	1.44613E-003	6	...........	-327.66
	301	60.4	1.60007E-001	-3.94046E-008	0.00000E+000	1.60000E-001	1.43606E-003	6	...........	-327.66
	302	60.6	1.50023E-001	-3.95500E-008	0.00000E+000	1.50000E-001	1.44378E-003	6	...........	-327.66
	303	60.8	1.40090E-001	-3.97692E-008	0.00000E+000	1.40000E-001	1.44913E-003	6	...........	-327.66
	304	61	1.30046E-001	-3.98818E-008	0.00000E+000	1.30000E-001	1.43596E-003	6	...........	-327.66
	305	61.2	1.20005E-001	-4.01872E-008	0.00000E+000	1.20000E-001	1.45196E-003	6	...........	-327.66
	306	61.4	1.10021E-001	-4.03115E-008	0.00000E+000	1.10000E-001	1.44768E-003	6	...........	-327.66
	307	61.6	1.00011E-001	-4.05667E-008	0.00000E+000	1.00000E-001	1.44778E-003	6	...........	-327.66
	308	61.8	9.01141E-002	-4.07193E-008	0.00000E+000	9.00000E-002	1.43764E-003	6	...........	-327.66
	309	62	7.99908E-002	-4.09658E-008	0.00000E+000	8.00000E-002	1.43382E-003	6	...........	-327.66
	310	62.2	7.00188E-002	-4.11821E-008	0.00000E+000	7.00000E-002	1.44154E-003	6	...........	-327.66
	311	62.4	6.00430E-002	-4.13585E-008	0.00000E+000	6.00000E-002	1.43697E-003	6	...........	-327.66
	312	62.6	5.00297E-002	-4.15215E-008	0.00000E+000	5.00000E-002	1.44606E-003	6	...........	-327.66
	313	62.8	4.00044E-002	-4.17871E-008	0.00000E+000	4.00000E-002	1.44618E-003	6	...........	-327.66
	314	63	3.00085E-002	-4.20399E-008	0.00000E+000	3.00000E-002	1.45153E-003	6	...........	-327.66
	315	63.2	2.00104E-002	-4.22262E-008	0.00000E+000	2.00000E-002	1.44509E-003	6	...........	-327.66
	316	63.4	1.00494E-002	-4.23666E-008	0.00000E+000	9.99999E-003	1.43967E-003	6	...........	-327.66
	317	63.6	-6.46067E-006	-4.26647E-008	0.00000E+000	-1.49012E-008	1.42547E-003	6	...........	-327.66
	318	63.8	-9.96405E-003	-4.28469E-008	0.00000E+000	-1.00000E-002	1.43229E-003	6	...........	-327.66
	319	64	-1.99553E-002	-4.31503E-008	0.00000E+000	-2.00000E-002	1.43972E-003	6	...........	-327.66
	320	64.2	-2.99678E-002	-4.32646E-008	0.00000E+000	-3.00000E-002	1.44241E-003	6	...........	-327.66
	321	64.4	-3.99469E-002	-4.35778E-008	0.00000E+000	-4.00000E-002	1.44911E-003	6	...........	-327.66
	322	64.6	-5.00019E-002	-4.38058E-008	0.00000E+000	-5.00000E-002	1.43501E-003	6	...........	-327.66
	323	64.8	-5.99821E-002	-4.41203E-008	0.00000E+000	-6.00000E-002	1.44474E-003	6	...........	-327.66
	324	65	-6.99446E-002	-4.42787E-008	0.00000E+000	-7.00000E-002	1.42815E-003	6	...........	-327.66
	325	65.2	-8.00066E-002	-4.45369E-008	0.00000E+000	-8.00000E-002	1.43559E-003	6	...........	-327.66
	326	65.4	-8.99552E-002	-4.48247E-008	0.00000E+000	-9.00000E-002	1.43354E-003	6	...........	-327.66
	327	65.6	-9.99818E-002	-4.51259E-008	0.00000E+000	-1.00000E-001	1.43462E-003	6	...........	-327.66
	328	65.8	-1.09966E-001	-4.53575E-008	0.00000E+000	-1.10000E-001	1.44401E-003	6	...........	-327.66
	329	66	-1.19982E-001	-4.56333E-008	0.00000E+000	-1.20000E-001	1.44724E-003	6	...........	-327.66
	330	66.2	-1.30003E-001	-4.59107E-008	0.00000E+000	-1.30000E-001	1.45053E-003	6	...........	-327.66
	331	66.4	-1.39955E-001	-4.61841E-008	0.00000E+000	-1.40000E-001	1.44768E-003	6	...........	-327.66
	332	66.6	-1.49994E-001	-4.64534E-008	0.00000E+000	-1.50000E-001	1.43471E-003	6	...........	-327.66
	333	66.8	-1.60004E-001	-4.67815E-008	0.00000E+000	-1.60000E-001	1.44196E-003	6	...........	-327.66
	334	67	-1.69966E-001	-4.70649E-008	0.00000E+000	-1.70000E-001	1.44247E-003	6	...........	-327.66
	335	67.2	-1.79992E-001	-4.74376E-008	0.00000E+000	-1.80000E-001	1.43931E-003	6	...........	-327.66
	336	67.4	-1.89864E-001	-4.77218E-008	0.00000E+000	-1.90000E-001	1.45650E-003	6	...........	-327.66
	337	67.6	-2.00010E-001	-4.81317E-008	0.00000E+000	-2.00000E-001	1.45031E-003	6	...........	-327.66
	338	67.8	-2.09977E-001	-4.84269E-008	0.00000E+000	-2.10000E-001	1.44789E-003	6	...........	-327.66
	339	68	-2.19902E-001	-4.88727E-008	0.00000E+000	-2.20000E-001	1.44984E-003	6	...........	-327.66
	340	68.2	-2.29969E-001	-4.91887E-008	0.00000E+000	-2.30000E-001	1.44296E-003	6	...........	-327.66
	341	68.4	-2.39998E-001	-4.96702E-008	0.00000E+000	-2.40000E-001	1.44184E-003	6	...........	-327.66
	342	68.6	-2.49971E-001	-5.00812E-008	0.00000E+000	-2.50000E-001	1.43692E-003	6	...........	-327.66
	343	68.8	-2.59981E-001	-5.05337E-008	0.00000E+000	-2.60000E-001	1.44316E-003	6	...........	-327.66
	344	69	-2.69911E-001	-5.09217E-008	0.00000E+000	-2.70000E-001	1.45314E-003	6	...........	-327.66
	345	69.2	-2.80005E-001	-5.15100E-008	0.00000E+000	-2.80000E-001	1.44973E-003	6	...........	-327.66
	346	69.4	-2.89955E-001	-5.20517E-008	0.00000E+000	-2.90000E-001	1.45103E-003	6	...........	-327.66
	347	69.6	-2.99965E-001	-5.25999E-008	0.00000E+000	-3.00000E-001	1.45319E-003	6	...........	-327.66
	348	69.8	-3.09964E-001	-5.31285E-008	0.00000E+000	-3.10000E-001	1.44237E-003	6	...........	-327.66
	349	70	-3.19992E-001	-5.37867E-008	0.00000E+000	-3.20000E-001	1.44429E-003	6	...........	-327.66
	350	70.2	-3.29986E-001	-5.43813E-008	0.00000E+000	-3.30000E-001	1.44331E-003	6	...........	-327.66
	351	70.4	-3.39989E-001	-5.50813E-008	0.00000E+000	-3.40000E-001	1.44426E-003	6	...........	-327.66
	352	70.6	-3.49954E-001	-5.56238E-008	0.00000E+000	-3.50000E-001	1.46198E-003	6	...........	-327.66
	353	70.8	-3.59988E-001	-5.63520E-008	0.00000E+000	-3.60000E-001	1.44843E-003	6	...........	-327.66
	354	71	-3.69867E-001	-5.68791E-008	0.00000E+000	-3.70000E-001	1.45191E-003	6	...........	-327.66
	355	71.2	-3.79978E-001	-5.75498E-008	0.00000E+000	-3.80000E-001	1.45181E-003	6	...........	-327.66
	356	71.4	-3.89943E-001	-5.81009E-008	0.00000E+000	-3.90000E-001	1.44399E-003	6	...........	-327.66
	357	71.6	-3.99966E-001	-5.86950E-008	0.00000E+000	-4.00000E-001	1.43356E-003	6	...........	-327.66
	358	71.8	-4.09968E-001	-5.92751E-008	0.00000E+000	-4.10000E-001	1.44483E-003	6	...........	-327.66
	359	72	-4.19954E-001	-5.98446E-008	0.00000E+000	-4.20000E-001	1.43826E-003	6	...........	-327.66
	360	72.2	-4.29936E-001	-6.04085E-008	0.00000E+000	-4.30000E-001	1.45063E-003	6	...........	-327.66
	361	72.4	-4.39983E-001	-6.09616E-008	0.00000E+000	-4.40000E-001	1.45340E-003	6	...........	-327.66
	362	72.6	-4.49897E-001	-6.15101E-008	0.00000E+000	-4.50000E-001	1.45126E-003	6	...........	-327.66
	363	72.8	-4.59957E-001	-6.21802E-008	0.00000E+000	-4.60000E-001	1.45381E-003	6	...........	-327.66
	364	73	-4.69826E-001	-6.26711E-008	0.00000E+000	-4.70000E-001	1.45206E-003	6	...........	-327.66
	365	73.2	-4.79934E-001	-6.33024E-008	0.00000E+000	-4.80000E-001	1.44959E-003	6	...........	-327.66
	366	73.4	-4.89940E-001	-6.38027E-008	0.00000E+000	-4.90000E-001	1.44696E-003	6	...........	-327.66
	367	73.6	-4.99861E-001	-6.44305E-008	0.00000E+000	-5.00000E-001	1.45520E-003	6	...........	-327.66
	368	73.8	-5.09897E-001	-6.49164E-008	0.00000E+000	-5.10000E-001	1.44814E-003	6	...........	-327.66
	369	74	-5.19984E-001	-6.55833E-008	0.00000E+000	-5.20000E-001	1.44984E-003	6	...........	-327.66
	370	74.2	-5.29917E-001	-6.61123E-008	0.00000E+000	-5.30000E-001	1.44851E-003	6	...........	-327.66
	371	74.4	-5.39947E-001	-6.67026E-008	0.00000E+000	-5.40000E-001	1.46060E-003	6	...........	-327.66
	372	74.6	-5.49812E-001	-6.71655E-008	0.00000E+000	-5.50000E-001	1.44419E-003	6	...........	-327.66
	373	74.8	-5.59962E-001	-6.76981E-008	0.00000E+000	-5.60000E-001	1.43572E-003	6	...........	-327.66
	374	75	-5.69859E-001	-6.82733E-008	0.00000E+000	-5.70000E-001	1.45138E-003	6	...........	-327.66
	375	75.2	-5.79852E-001	-6.86973E-008	0.00000E+000	-5.80000E-001	1.44679E-003	6	...........	-327.66
	376	75.4	-5.89908E-001	-6.91262E-008	0.00000E+000	-5.90000E-001	1.45101E-003	6	...........	-327.66
	377	75.6	-5.99919E-001	-6.96021E-008	0.00000E+000	-6.00000E-001	1.45134E-003	6	...........	-327.66
	378	75.8	-6.09925E-001	-7.00842E-008	0.00000E+000	-6.10000E-001	1.44959E-003	6	...........	-327.66
	379	76	-6.19960E-001	-7.04449E-008	0.00000E+000	-6.20000E-001	1.45791E-003	6	...........	-327.66
	380	76.2	-6.29836E-001	-7.06200E-008	0.00000E+000	-6.30000E-001	1.44711E-003	6	...........	-327.66
[...]
	700	140.2	-8.29697E-001	-3.88970E-008	0.00000E+000	-8.30000E-001	1.47087E-003	6	...........	-327.66
	701	140.4	-8.39914E-001	-3.67705E-008	0.00000E+000	-8.40000E-001	1.46173E-003	6	...........	-327.66
	702	140.6	-8.49876E-001	-3.46218E-008	0.00000E+000	-8.50000E-001	1.46140E-003	6	...........	-327.66
	703	140.8	-8.59830E-001	-3.27775E-008	0.00000E+000	-8.60000E-001	1.46198E-003	6	...........	-327.66
	704	141	-8.69887E-001	-3.12053E-008	0.00000E+000	-8.70000E-001	1.45875E-003	6	...........	-327.66
	705	141.2	-8.79945E-001	-2.97328E-008	0.00000E+000	-8.80000E-001	1.45525E-003	6	...........	-327.66
	706	141.4	-8.89884E-001	-2.83832E-008	0.00000E+000	-8.90000E-001	1.46113E-003	6	...........	-327.66
	707	141.6	-8.99947E-001	-2.71465E-008	0.00000E+000	-9.00000E-001	1.45078E-003	6	...........	-327.66
	708	141.8	-8.89954E-001	-2.21731E-008	0.00000E+000	-8.90000E-001	1.45773E-003	6	...........	-327.66
	709	142	-8.79986E-001	-1.95443E-008	0.00000E+000	-8.80000E-001	1.45800E-003	6	...........	-327.66
	710	142.2	-8.69989E-001	-1.75170E-008	0.00000E+000	-8.70000E-001	1.45134E-003	6	...........	-327.66
	711	142.4	-8.59884E-001	-1.57605E-008	0.00000E+000	-8.60000E-001	1.46136E-003	6	...........	-327.66
	712	142.6	-8.49954E-001	-1.41058E-008	0.00000E+000	-8.50000E-001	1.46393E-003	6	...........	-327.66
	713	142.8	-8.40007E-001	-1.24233E-008	0.00000E+000	-8.40000E-001	1.45701E-003	6	...........	-327.66
	714	143	-8.29792E-001	-1.07791E-008	0.00000E+000	-8.30000E-001	1.45858E-003	6	...........	-327.66
	715	143.2	-8.19989E-001	-9.04340E-009	0.00000E+000	-8.20000E-001	1.45728E-003	6	...........	-327.66
	716	143.4	-8.09889E-001	-7.11531E-009	0.00000E+000	-8.10000E-001	1.45083E-003	6	...........	-327.66
	717	143.6	-7.99977E-001	-5.08251E-009	0.00000E+000	-8.00000E-001	1.44904E-003	6	...........	-327.66
	718	143.8	-7.89935E-001	-2.74062E-009	0.00000E+000	-7.90000E-001	1.46243E-003	6	...........	-327.66
	719	144	-7.79975E-001	-1.66630E-010	0.00000E+000	-7.80000E-001	1.46378E-003	6	...........	-327.66
	720	144.2	-7.69973E-001	2.82188E-009	0.00000E+000	-7.70000E-001	1.46165E-003	6	...........	-327.66
	721	144.4	-7.59965E-001	6.10828E-009	0.00000E+000	-7.60000E-001	1.46853E-003	6	...........	-327.66
	722	144.6	-7.49914E-001	9.61321E-009	0.00000E+000	-7.50000E-001	1.46933E-003	6	...........	-327.66
	723	144.8	-7.39985E-001	1.33513E-008	0.00000E+000	-7.40000E-001	1.45585E-003	6	...........	-327.66
	724	145	-7.29921E-001	1.74275E-008	0.00000E+000	-7.30000E-001	1.45403E-003	6	...........	-327.66
	725	145.2	-7.19985E-001	2.12596E-008	0.00000E+000	-7.20000E-001	1.45133E-003	6	...........	-327.66
	726	145.4	-7.09910E-001	2.46920E-008	0.00000E+000	-7.10000E-001	1.45820E-003	6	...........	-327.66
	727	145.6	-6.99952E-001	2.72689E-008	0.00000E+000	-7.00000E-001	1.46286E-003	6	...........	-327.66
	728	145.8	-6.89957E-001	2.90040E-008	0.00000E+000	-6.90000E-001	1.46628E-003	6	...........	-327.66
	729	146	-6.79925E-001	2.97474E-008	0.00000E+000	-6.80000E-001	1.46808E-003	6	...........	-327.66
	730	146.2	-6.69875E-001	2.98053E-008	0.00000E+000	-6.70000E-001	1.46720E-003	6	...........	-327.66
	731	146.4	-6.59967E-001	2.94678E-008	0.00000E+000	-6.60000E-001	1.45961E-003	6	...........	-327.66
	732	146.6	-6.49922E-001	2.92849E-008	0.00000E+000	-6.50000E-001	1.45498E-003	6	...........	-327.66
	733	146.8	-6.39992E-001	2.91047E-008	0.00000E+000	-6.40000E-001	1.45456E-003	6	...........	-327.66
	734	147	-6.29909E-001	2.91462E-008	0.00000E+000	-6.30000E-001	1.46023E-003	6	...........	-327.66
	735	147.2	-6.19983E-001	2.90261E-008	0.00000E+000	-6.20000E-001	1.46780E-003	6	...........	-327.66
	736	147.4	-6.09997E-001	2.90674E-008	0.00000E+000	-6.10000E-001	1.47213E-003	6	...........	-327.66
	737	147.6	-6.00001E-001	2.92416E-008	0.00000E+000	-6.00000E-001	1.46070E-003	6	...........	-327.66
	738	147.8	-5.89973E-001	2.94805E-008	0.00000E+000	-5.90000E-001	1.45520E-003	6	...........	-327.66
	739	148	-5.79936E-001	2.96422E-008	0.00000E+000	-5.80000E-001	1.46238E-003	6	...........	-327.66
	740	148.2	-5.69985E-001	2.98659E-008	0.00000E+000	-5.70000E-001	1.45620E-003	6	...........	-327.66
	741	148.4	-5.60018E-001	3.02048E-008	0.00000E+000	-5.60000E-001	1.45158E-003	6	...........	-327.66
	742	148.6	-5.49907E-001	3.05506E-008	0.00000E+000	-5.50000E-001	1.44264E-003	6	...........	-327.66
	743	148.8	-5.40005E-001	3.08327E-008	0.00000E+000	-5.40000E-001	1.46740E-003	6	...........	-327.66
	744	149	-5.29987E-001	3.12616E-008	0.00000E+000	-5.30000E-001	1.46258E-003	6	...........	-327.66
	745	149.2	-5.20035E-001	3.16394E-008	0.00000E+000	-5.20000E-001	1.46233E-003	6	...........	-327.66
	746	149.4	-5.09965E-001	3.21680E-008	0.00000E+000	-5.10000E-001	1.45828E-003	6	...........	-327.66
	747	149.6	-4.99919E-001	3.25784E-008	0.00000E+000	-5.00000E-001	1.45836E-003	6	...........	-327.66
	748	149.8	-4.89988E-001	3.31044E-008	0.00000E+000	-4.90000E-001	1.46075E-003	6	...........	-327.66
	749	150	-4.79999E-001	3.35144E-008	0.00000E+000	-4.80000E-001	1.45508E-003	6	...........	-327.66
	750	150.2	-4.69888E-001	3.41146E-008	0.00000E+000	-4.70000E-001	1.46090E-003	6	...........	-327.66
	751	150.4	-4.60000E-001	3.46091E-008	0.00000E+000	-4.60000E-001	1.46045E-003	6	...........	-327.66
	752	150.6	-4.49942E-001	3.53537E-008	0.00000E+000	-4.50000E-001	1.47015E-003	6	...........	-327.66
	753	150.8	-4.40007E-001	3.58881E-008	0.00000E+000	-4.40000E-001	1.46518E-003	6	...........	-327.66
	754	151	-4.29992E-001	3.64196E-008	0.00000E+000	-4.30000E-001	1.47222E-003	6	...........	-327.66
	755	151.2	-4.19996E-001	3.69762E-008	0.00000E+000	-4.20000E-001	1.46530E-003	6	...........	-327.66
	756	151.4	-4.10000E-001	3.76481E-008	0.00000E+000	-4.10000E-001	1.46793E-003	6	...........	-327.66
	757	151.6	-4.00001E-001	3.82518E-008	0.00000E+000	-4.00000E-001	1.44906E-003	6	...........	-327.66
	758	151.8	-3.89959E-001	3.88650E-008	0.00000E+000	-3.90000E-001	1.47067E-003	6	...........	-327.66
	759	152	-3.80010E-001	3.94212E-008	0.00000E+000	-3.80000E-001	1.46525E-003	6	...........	-327.66
	760	152.2	-3.69927E-001	4.01298E-008	0.00000E+000	-3.70000E-001	1.46407E-003	6	...........	-327.66
	761	152.4	-3.60017E-001	4.07306E-008	0.00000E+000	-3.60000E-001	1.46843E-003	6	...........	-327.66
	762	152.6	-3.50004E-001	4.14003E-008	0.00000E+000	-3.50000E-001	1.46717E-003	6	...........	-327.66
	763	152.8	-3.40013E-001	4.18780E-008	0.00000E+000	-3.40000E-001	1.46041E-003	6	...........	-327.66
	764	153	-3.30013E-001	4.24922E-008	0.00000E+000	-3.30000E-001	1.45263E-003	6	...........	-327.66
	765	153.2	-3.20016E-001	4.30329E-008	0.00000E+000	-3.20000E-001	1.45653E-003	6	...........	-327.66
	766	153.4	-3.09999E-001	4.36577E-008	0.00000E+000	-3.10000E-001	1.44523E-003	6	...........	-327.66
	767	153.6	-3.00001E-001	4.40607E-008	0.00000E+000	-3.00000E-001	1.46637E-003	6	...........	-327.66
	768	153.8	-2.89969E-001	4.45384E-008	0.00000E+000	-2.90000E-001	1.46397E-003	6	...........	-327.66
	769	154	-2.80024E-001	4.50292E-008	0.00000E+000	-2.80000E-001	1.45646E-003	6	...........	-327.66
	770	154.2	-2.69954E-001	4.55357E-008	0.00000E+000	-2.70000E-001	1.46517E-003	6	...........	-327.66
	771	154.4	-2.60004E-001	4.58758E-008	0.00000E+000	-2.60000E-001	1.46093E-003	6	...........	-327.66
	772	154.6	-2.50010E-001	4.62627E-008	0.00000E+000	-2.50000E-001	1.45611E-003	6	...........	-327.66
	773	154.8	-2.40026E-001	4.66894E-008	0.00000E+000	-2.40000E-001	1.45938E-003	6	...........	-327.66
	774	155	-2.29997E-001	4.71340E-008	0.00000E+000	-2.30000E-001	1.46200E-003	6	...........	-327.66
	775	155.2	-2.19935E-001	4.74259E-008	0.00000E+000	-2.20000E-001	1.46507E-003	6	...........	-327.66
	776	155.4	-2.10002E-001	4.78107E-008	0.00000E+000	-2.10000E-001	1.47037E-003	6	...........	-327.66
	777	155.6	-2.00050E-001	4.80548E-008	0.00000E+000	-2.00000E-001	1.46163E-003	6	...........	-327.66
	778	155.8	-1.89914E-001	4.84233E-008	0.00000E+000	-1.90000E-001	1.47275E-003	6	...........	-327.66
	779	156	-1.80017E-001	4.86632E-008	0.00000E+000	-1.80000E-001	1.46266E-003	6	...........	-327.66
	780	156.2	-1.70015E-001	4.90204E-008	0.00000E+000	-1.70000E-001	1.45988E-003	6	...........	-327.66
	781	156.4	-1.60031E-001	4.91236E-008	0.00000E+000	-1.60000E-001	1.45588E-003	6	...........	-327.66
	782	156.6	-1.50030E-001	4.94272E-008	0.00000E+000	-1.50000E-001	1.44923E-003	6	...........	-327.66
	783	156.8	-1.40005E-001	4.96933E-008	0.00000E+000	-1.40000E-001	1.46315E-003	6	...........	-327.66
	784	157	-1.30024E-001	4.99860E-008	0.00000E+000	-1.30000E-001	1.46803E-003	6	...........	-327.66
	785	157.2	-1.20014E-001	5.02492E-008	0.00000E+000	-1.20000E-001	1.45521E-003	6	...........	-327.66
	786	157.4	-1.09996E-001	5.03283E-008	0.00000E+000	-1.10000E-001	1.47605E-003	6	...........	-327.66
	787	157.6	-1.00016E-001	5.04752E-008	0.00000E+000	-1.00000E-001	1.45745E-003	6	...........	-327.66
	788	157.8	-8.99960E-002	5.08921E-008	0.00000E+000	-9.00000E-002	1.46705E-003	6	...........	-327.66
	789	158	-8.00210E-002	5.10677E-008	0.00000E+000	-8.00000E-002	1.44808E-003	6	...........	-327.66
	790	158.2	-6.99983E-002	5.11150E-008	0.00000E+000	-7.00000E-002	1.45516E-003	6	...........	-327.66
	791	158.4	-6.00166E-002	5.12133E-008	0.00000E+000	-6.00000E-002	1.46463E-003	6	...........	-327.66
	792	158.6	-5.00324E-002	5.14468E-008	0.00000E+000	-5.00000E-002	1.46201E-003	6	...........	-327.66
	793	158.8	-3.99738E-002	5.17738E-008	0.00000E+000	-4.00000E-002	1.47072E-003	6	...........	-327.66
	794	159	-2.99810E-002	5.19431E-008	0.00000E+000	-3.00000E-002	1.45184E-003	6	...........	-327.66
	795	159.2	-2.00034E-002	5.18475E-008	0.00000E+000	-2.00000E-002	1.46522E-003	6	...........	-327.66
	796	159.4	-1.00049E-002	5.20863E-008	0.00000E+000	-1.00000E-002	1.45730E-003	6	...........	-327.66
	797	159.6	-2.63256E-005	5.21944E-008	0.00000E+000	-1.49012E-008	1.45353E-003	6	...........	-327.66
	798	159.8	1.00155E-002	5.24178E-008	0.00000E+000	9.99999E-003	1.45038E-003	6	...........	-327.66
	799	160	1.99970E-002	5.23927E-008	0.00000E+000	2.00000E-002	1.46403E-003	6	...........	-327.66
	800	160.2	2.99996E-002	5.25336E-008	0.00000E+000	3.00000E-002	1.47155E-003	6	...........	-327.66
	801	160.4	3.97920E-002	5.27538E-008	0.00000E+000	4.00000E-002	1.46948E-003	6	...........	-327.66
	802	160.6	5.00221E-002	5.29358E-008	0.00000E+000	5.00000E-002	1.46777E-003	6	...........	-327.66
	803	160.8	6.00022E-002	5.30306E-008	0.00000E+000	6.00000E-002	1.46210E-003	6	...........	-327.66
	804	161	7.00052E-002	5.32025E-008	0.00000E+000	7.00000E-002	1.45961E-003	6	...........	-327.66
	805	161.2	7.99744E-002	5.34026E-008	0.00000E+000	8.00000E-002	1.45066E-003	6	...........	-327.66
	806	161.4	9.00664E-002	5.36281E-008	0.00000E+000	9.00000E-002	1.45961E-003	6	...........	-327.66
	807	161.6	9.99907E-002	5.37171E-008	0.00000E+000	1.00000E-001	1.46700E-003	6	...........	-327.66
	808	161.8	1.09995E-001	5.39626E-008	0.00000E+000	1.10000E-001	1.45273E-003	6	...........	-327.66
	809	162	1.19998E-001	5.41789E-008	0.00000E+000	1.20000E-001	1.46116E-003	6	...........	-327.66
	810	162.2	1.30016E-001	5.45088E-008	0.00000E+000	1.30000E-001	1.45706E-003	6	...........	-327.66
	811	162.4	1.40045E-001	5.46459E-008	0.00000E+000	1.40000E-001	1.46221E-003	6	...........	-327.66
	812	162.6	1.50014E-001	5.48831E-008	0.00000E+000	1.50000E-001	1.46011E-003	6	...........	-327.66
	813	162.8	1.59983E-001	5.51063E-008	0.00000E+000	1.60000E-001	1.45525E-003	6	...........	-327.66
	814	163	1.70071E-001	5.53760E-008	0.00000E+000	1.70000E-001	1.46638E-003	6	...........	-327.66
	815	163.2	1.79988E-001	5.55337E-008	0.00000E+000	1.80000E-001	1.46260E-003	6	...........	-327.66
	816	163.4	1.89997E-001	5.57098E-008	0.00000E+000	1.90000E-001	1.47245E-003	6	...........	-327.66
	817	163.6	1.99983E-001	5.59119E-008	0.00000E+000	2.00000E-001	1.45415E-003	6	...........	-327.66
	818	163.8	2.09978E-001	5.61253E-008	0.00000E+000	2.10000E-001	1.46281E-003	6	...........	-327.66
	819	164	2.19939E-001	5.62448E-008	0.00000E+000	2.20000E-001	1.45846E-003	6	...........	-327.66
	820	164.2	2.29994E-001	5.64049E-008	0.00000E+000	2.30000E-001	1.46213E-003	6	...........	-327.66
	821	164.4	2.39966E-001	5.66123E-008	0.00000E+000	2.40000E-001	1.45376E-003	6	...........	-327.66
	822	164.6	2.50009E-001	5.68548E-008	0.00000E+000	2.50000E-001	1.46346E-003	6	...........	-327.66
	823	164.8	2.59974E-001	5.68738E-008	0.00000E+000	2.60000E-001	1.46572E-003	6	...........	-327.66
	824	165	2.70007E-001	5.71557E-008	0.00000E+000	2.70000E-001	1.47585E-003	6	...........	-327.66
	825	165.2	2.79961E-001	5.73617E-008	0.00000E+000	2.80000E-001	1.46788E-003	6	...........	-327.66
	826	165.4	2.89969E-001	5.76252E-008	0.00000E+000	2.90000E-001	1.46445E-003	6	...........	-327.66
	827	165.6	2.99979E-001	5.77287E-008	0.00000E+000	3.00000E-001	1.45993E-003	6	...........	-327.66
	828	165.8	3.09981E-001	5.79679E-008	0.00000E+000	3.10000E-001	1.46493E-003	6	...........	-327.66
	829	166	3.19973E-001	5.82163E-008	0.00000E+000	3.20000E-001	1.45620E-003	6	...........	-327.66
	830	166.2	3.29995E-001	5.85336E-008	0.00000E+000	3.30000E-001	1.45825E-003	6	...........	-327.66
	831	166.4	3.39983E-001	5.87098E-008	0.00000E+000	3.40000E-001	1.46233E-003	6	...........	-327.66
	832	166.6	3.50014E-001	5.89987E-008	0.00000E+000	3.50000E-001	1.46235E-003	6	...........	-327.66
	833	166.8	3.59938E-001	5.93325E-008	0.00000E+000	3.60000E-001	1.46195E-003	6	...........	-327.66
	834	167	3.69979E-001	5.96810E-008	0.00000E+000	3.70000E-001	1.46285E-003	6	...........	-327.66
	835	167.2	3.79981E-001	5.99318E-008	0.00000E+000	3.80000E-001	1.46375E-003	6	...........	-327.66
	836	167.4	3.89971E-001	6.02331E-008	0.00000E+000	3.90000E-001	1.45876E-003	6	...........	-327.66
	837	167.6	3.99952E-001	6.06180E-008	0.00000E+000	4.00000E-001	1.45588E-003	6	...........	-327.66
	838	167.8	4.09963E-001	6.09542E-008	0.00000E+000	4.10000E-001	1.44744E-003	6	...........	-327.66
	839	168	4.19984E-001	6.13170E-008	0.00000E+000	4.20000E-001	1.46800E-003	6	...........	-327.66
	840	168.2	4.29981E-001	6.17282E-008	0.00000E+000	4.30000E-001	1.47200E-003	6	...........	-327.66
	841	168.4	4.39944E-001	6.21226E-008	0.00000E+000	4.40000E-001	1.46435E-003	6	...........	-327.66
	842	168.6	4.49991E-001	6.25688E-008	0.00000E+000	4.50000E-001	1.46610E-003	6	...........	-327.66
	843	168.8	4.59974E-001	6.29798E-008	0.00000E+000	4.60000E-001	1.45201E-003	6	...........	-327.66
	844	169	4.69945E-001	6.34693E-008	0.00000E+000	4.70000E-001	1.45836E-003	6	...........	-327.66
	845	169.2	4.79945E-001	6.39383E-008	0.00000E+000	4.80000E-001	1.45224E-003	6	...........	-327.66
	846	169.4	4.89950E-001	6.44928E-008	0.00000E+000	4.90000E-001	1.45885E-003	6	...........	-327.66
	847	169.6	4.99985E-001	6.50298E-008	0.00000E+000	5.00000E-001	1.45543E-003	6	...........	-327.66
	848	169.8	5.09965E-001	6.56048E-008	0.00000E+000	5.10000E-001	1.46573E-003	6	...........	-327.66
	849	170	5.19945E-001	6.62239E-008	0.00000E+000	5.20000E-001	1.46755E-003	6	...........	-327.66
	850	170.2	5.29984E-001	6.68808E-008	0.00000E+000	5.30000E-001	1.45805E-003	6	...........	-327.66
	851	170.4	5.39975E-001	6.75721E-008	0.00000E+000	5.40000E-001	1.45850E-003	6	...........	-327.66
	852	170.6	5.49963E-001	6.83481E-008	0.00000E+000	5.50000E-001	1.46688E-003	6	...........	-327.66
	853	170.8	5.59959E-001	6.92662E-008	0.00000E+000	5.60000E-001	1.45294E-003	6	...........	-327.66
	854	171	5.69963E-001	7.02232E-008	0.00000E+000	5.70000E-001	1.46382E-003	6	...........	-327.66
	855	171.2	5.79973E-001	7.12472E-008	0.00000E+000	5.80000E-001	1.46657E-003	6	...........	-327.66
	856	171.4	5.89961E-001	7.24647E-008	0.00000E+000	5.90000E-001	1.46685E-003	6	...........	-327.66
	857	171.6	5.99952E-001	7.37474E-008	0.00000E+000	6.00000E-001	1.46515E-003	6	...........	-327.66
CURVE4	TABLE
	Pt	T	Vf	Im	Vu	Sig	Ach	IERange	Over	Temp
	#	s	V vs. Ref.	A	V	V	V	#	bits	deg C
	858	171.8	5.89980E-001	-6.38473E-009	0.00000E+000	5.90000E-001	1.46565E-003	6	...........	-327.66
	859	172	5.79992E-001	-1.39729E-008	0.00000E+000	5.80000E-001	1.47260E-003	6	...........	-327.66
	860	172.2	5.69985E-001	-1.85283E-008	0.00000E+000	5.70000E-001	1.44963E-003	6	...........	-327.66
	861	172.4	5.59964E-001	-2.17810E-008	0.00000E+000	5.60000E-001	1.45470E-003	6	...........	-327.66
	862	172.6	5.49991E-001	-2.41927E-008	0.00000E+000	5.50000E-001	1.45333E-003	6	...........	-327.66
	863	172.8	5.39997E-001	-2.60249E-008	0.00000E+000	5.40000E-001	1.46018E-003	6	...........	-327.66
	864	173	5.30013E-001	-2.74188E-008	0.00000E+000	5.30000E-001	1.46080E-003	6	...........	-327.66
	865	173.2	5.19983E-001	-2.85829E-008	0.00000E+000	5.20000E-001	1.46643E-003	6	...........	-327.66
	866	173.4	5.09976E-001	-2.95251E-008	0.00000E+000	5.10000E-001	1.46607E-003	6	...........	-327.66
	867	173.6	5.00010E-001	-3.03226E-008	0.00000E+000	5.00000E-001	1.46498E-003	6	...........	-327.66
	868	173.8	4.89973E-001	-3.10603E-008	0.00000E+000	4.90000E-001	1.46001E-003	6	...........	-327.66
	869	174	4.79959E-001	-3.16978E-008	0.00000E+000	4.80000E-001	1.46255E-003	6	...........	-327.66
	870	174.2	4.69974E-001	-3.22411E-008	0.00000E+000	4.70000E-001	1.45801E-003	6	...........	-327.66
	871	174.4	4.59996E-001	-3.27170E-008	0.00000E+000	4.60000E-001	1.46423E-003	6	...........	-327.66
	872	174.6	4.50023E-001	-3.31094E-008	0.00000E+000	4.50000E-001	1.46737E-003	6	...........	-327.66
	873	174.8	4.39941E-001	-3.36136E-008	0.00000E+000	4.40000E-001	1.46281E-003	6	...........	-327.66
	874	175	4.29994E-001	-3.39296E-008	0.00000E+000	4.30000E-001	1.46623E-003	6	...........	-327.66
	875	175.2	4.20042E-001	-3.42792E-008	0.00000E+000	4.20000E-001	1.45678E-003	6	...........	-327.66
	876	175.4	4.09981E-001	-3.45396E-008	0.00000E+000	4.10000E-001	1.45131E-003	6	...........	-327.66
	877	175.6	3.99980E-001	-3.48904E-008	0.00000E+000	4.00000E-001	1.47187E-003	6	...........	-327.66
	878	175.8	3.89992E-001	-3.52117E-008	0.00000E+000	3.90000E-001	1.46276E-003	6	...........	-327.66
	879	176	3.80001E-001	-3.54509E-008	0.00000E+000	3.80000E-001	1.46051E-003	6	...........	-327.66
	880	176.2	3.70030E-001	-3.56432E-008	0.00000E+000	3.70000E-001	1.47125E-003	6	...........	-327.66
	881	176.4	3.59971E-001	-3.59155E-008	0.00000E+000	3.60000E-001	1.45645E-003	6	...........	-327.66
	882	176.6	3.50029E-001	-3.61576E-008	0.00000E+000	3.50000E-001	1.47045E-003	6	...........	-327.66
	883	176.8	3.40014E-001	-3.64177E-008	0.00000E+000	3.40000E-001	1.46040E-003	6	...........	-327.66
	884	177	3.30021E-001	-3.65294E-008	0.00000E+000	3.30000E-001	1.45738E-003	6	...........	-327.66
	885	177.2	3.19997E-001	-3.68278E-008	0.00000E+000	3.20000E-001	1.45866E-003	6	...........	-327.66
	886	177.4	3.09999E-001	-3.70309E-008	0.00000E+000	3.10000E-001	1.45139E-003	6	...........	-327.66
	887	177.6	3.00001E-001	-3.72658E-008	0.00000E+000	3.00000E-001	1.45998E-003	6	...........	-327.66
	888	177.8	2.90015E-001	-3.73428E-008	0.00000E+000	2.90000E-001	1.46812E-003	6	...........	-327.66
	889	178	2.79988E-001	-3.76123E-008	0.00000E+000	2.80000E-001	1.46968E-003	6	...........	-327.66
	890	178.2	2.70110E-001	-3.77653E-008	0.00000E+000	2.70000E-001	1.46020E-003	6	...........	-327.66
	891	178.4	2.60008E-001	-3.79986E-008	0.00000E+000	2.60000E-001	1.46375E-003	6	...........	-327.66
	892	178.6	2.50057E-001	-3.80389E-008	0.00000E+000	2.50000E-001	1.44709E-003	6	...........	-327.66
	893	178.8	2.40013E-001	-3.83016E-008	0.00000E+000	2.40000E-001	1.45446E-003	6	...........	-327.66
	894	179	2.30007E-001	-3.84905E-008	0.00000E+000	2.30000E-001	1.46043E-003	6	...........	-327.66
	895	179.2	2.20008E-001	-3.87073E-008	0.00000E+000	2.20000E-001	1.46068E-003	6	...........	-327.66
	896	179.4	2.10009E-001	-3.88318E-008	0.00000E+000	2.10000E-001	1.46838E-003	6	...........	-327.66
	897	179.6	2.00007E-001	-3.90522E-008	0.00000E+000	2.00000E-001	1.46025E-003	6	...........	-327.66
	898	179.8	1.90057E-001	-3.91961E-008	0.00000E+000	1.90000E-001	1.46928E-003	6	...........	-327.66
	899	180	1.80020E-001	-3.94229E-008	0.00000E+000	1.80000E-001	1.46378E-003	6	...........	-327.66
	900	180.2	1.70114E-001	-3.95744E-008	0.00000E+000	1.70000E-001	1.46803E-003	6	...........	-327.66