File: Test_Data_Files/20250509_IF0011_IIA42_PBSair_E04_E_CV50000_PEDOT.DTA
EXPLAIN
TAG	CV
TITLE	LABEL	CV50000	Test Identifier
DATE	LABEL	5/9/2025	Date
TIME	LABEL	14:57:06	Time
NOTES	NOTES	1	Notes...

PSTAT	PSTAT	REF600P-43058	Potentiostat
VINIT	POTEN	0.00000E+000	T	Initial E (V)
VLIMIT1	POTEN	-9.00000E-001	F	Scan Limit 1 (V)
VLIMIT2	POTEN	6.00000E-001	F	Scan Limit 2 (V)
VFINAL	POTEN	0.00000E+000	T	Final E (V)
SCANRATE	QUANT	4.99999E+004	Scan Rate (mV/s)
STEPSIZE	QUANT	1.00000E+001	Step Size (mV)
CYCLES	IQUANT	3	Cycles (#)
IMODE	SELECTOR	1	I/E Range Mode
IRANGE	QUANT	1.00000E-002	Max Current (mA)
AREA	QUANT	1.00000E+000	Sample Area (cm^2)
EQDELAY	QUANT	5.00000E+000	Equil. Time (s)
IRCOMP	SELECTOR	0	IRComp
PFCOR	QUANT	5.00000E+001	PF Corr. (ohm)
SAMPLINGMODE	SELECTOR	2	Sampling Mode
EOC	QUANT	0.1683657	Open Circuit (V)
ELECTRODETYPE	SELECTOR	0	Electrode Type
STRIPPING	TOGGLE	F	Used for Stripping
SEQUENCER	TOGGLE	TRUE	Run as Sequence
PSTATMODEL	IQUANT	7	Pstat Model
PSTATSECTION	LABEL	REF600P-43058	Pstat Section
PSTATSERIALNO	LABEL	43058	Pstat Serial Number
CTRLMODE	IQUANT	1	Control Mode
ELECTROMETER	IQUANT	0	RE=0 or CS=1
IESTAB	IQUANT	2	I/E Stability
CASPEED	IQUANT	4	Control Amp Speed
CONVENTION	IQUANT	1	Current Convention
ICHRANGE	IQUANT	2	Ich Range
ICHRANGEMODE	TOGGLE	F	Ich Auto Range
ICHOFFSETENABLE	TOGGLE	F	Ich Offset Enable
ICHOFFSET	QUANT	0	Ich Offset (V)
ICHFILTER	IQUANT	1	Ich Filter
VCHRANGE	IQUANT	2	Vch Range
VCHRANGEMODE	TOGGLE	F	Vch Auto Range
VCHOFFSETENABLE	TOGGLE	F	Vch Offset Enable
VCHOFFSET	QUANT	0	Vch Offset (V)
VCHFILTER	IQUANT	1	Vch Filter
ACHRANGE	IQUANT	2	Ach Range
ACHOFFSETENABLE	TOGGLE	F	Ach Offset Enable
ACHOFFSET	QUANT	0	Ach Offset (V)
ACHFILTER	IQUANT	1	Ach Filter
IERANGELOWERLIMIT	IQUANT	1	I/E Range Lower Limit
IERANGEMODE	TOGGLE	F	I/E AutoRange
IERANGE	IQUANT	7	I/E Range
POSFEEDENABLE	TOGGLE	F	Positive Feedback IR Comp
POSFEEDRESISTANCE	QUANT	0	Positive Feedback Resistance (ohm)
ACHSELECT	IQUANT	4	Ach Select
SENSECABLEID	IQUANT	7	Sense Cable ID
PWRCABLEID	IQUANT	7	Power Cable ID
DCCALDATE	LABEL	5/8/2025	DC Calibration Date
ACCALDATE	LABEL	5/8/2025	AC Calibration Date
THERMOSELECT	IQUANT	1	Thermo Select
FRAMEWORKVERSION	LABEL	7.10.4	Framework Version
INSTRUMENTVERSION	LABEL	5.01	Instrument Version
COMMVERSION	LABEL	5.10	Communications Version
CPUPLDVERSION	LABEL	6.00	CPU PLD Version
CTRLPLDVERSION	LABEL	3.21	CTRL PLD Version
PSTATPLDVERSION	LABEL	0.00	PSTAT PLD Version
CURVE1	TABLE
	Pt	T	Vf	Im	Vu	Sig	Ach	IERange	Over	Temp
	#	s	V vs. Ref.	A	V	V	V	#	bits	deg C
	0	0.0002	1.68750E-001	1.14055E-008	0.00000E+000	1.68350E-001	1.29022E-003	7	...........	-327.66
	1	0.0004	1.58412E-001	-1.22226E-006	0.00000E+000	1.58350E-001	1.14022E-003	7	...........	-327.66
	2	0.0006	1.48537E-001	-2.35367E-006	0.00000E+000	1.48350E-001	1.09022E-003	7	...........	-327.66
	3	0.0008	1.38425E-001	-3.28429E-006	0.00000E+000	1.38350E-001	1.06522E-003	7	...........	-327.66
	4	0.001	1.28475E-001	-4.08640E-006	0.00000E+000	1.28350E-001	1.04022E-003	7	...........	-327.66
	5	0.0012	1.18487E-001	-4.79800E-006	0.00000E+000	1.18350E-001	1.11522E-003	7	...........	-327.66
	6	0.0014	1.08400E-001	-5.44109E-006	0.00000E+000	1.08350E-001	1.11522E-003	7	...........	-327.66
	7	0.0016	9.83873E-002	-6.03517E-006	0.00000E+000	9.83500E-002	1.11522E-003	7	...........	-327.66
	8	0.0018	8.86998E-002	-6.58849E-006	0.00000E+000	8.83500E-002	1.19022E-003	7	...........	-327.66
	9	0.002	7.83748E-002	-7.10906E-006	0.00000E+000	7.83500E-002	1.06522E-003	7	...........	-327.66
	10	0.0022	6.84498E-002	-7.60213E-006	0.00000E+000	6.83500E-002	1.01522E-003	7	...........	-327.66
	11	0.0024	5.84873E-002	-8.07445E-006	0.00000E+000	5.83500E-002	9.90224E-004	7	...........	-327.66
	12	0.0026	4.86873E-002	-8.52851E-006	0.00000E+000	4.83500E-002	1.11522E-003	7	...........	-327.66
	13	0.0028	3.84873E-002	-8.96357E-006	0.00000E+000	3.83500E-002	1.11522E-003	7	...........	-327.66
	14	0.003	2.84373E-002	-9.38712E-006	0.00000E+000	2.83500E-002	1.09022E-003	7	...........	-327.66
	15	0.0032	1.84873E-002	-9.79718E-006	0.00000E+000	1.83500E-002	1.04022E-003	7	...........	-327.66
	16	0.0034	8.57481E-003	-1.01927E-005	0.00000E+000	8.34998E-003	1.09022E-003	7	...........	-327.66
	17	0.0036	-1.62519E-003	-1.05875E-005	0.00000E+000	-1.65001E-003	1.06522E-003	7	...........	-327.66
	18	0.0038	-1.14127E-002	-1.09706E-005	0.00000E+000	-1.16500E-002	1.11522E-003	7	...........	-327.66
	19	0.004	-2.15752E-002	-1.13509E-005	0.00000E+000	-2.16500E-002	9.40224E-004	7	...........	-327.66
	20	0.0042	-3.13877E-002	-1.17197E-005	0.00000E+000	-3.16500E-002	1.21522E-003	7	...........	-327.66
	21	0.0044	-4.14377E-002	-1.20795E-005	0.00000E+000	-4.16500E-002	1.11522E-003	7	...........	-327.66
	22	0.0046	-5.15127E-002	-1.24465E-005	0.00000E+000	-5.16500E-002	1.09022E-003	7	...........	-327.66
	23	0.0048	-6.15127E-002	-1.28006E-005	0.00000E+000	-6.16500E-002	1.09022E-003	7	...........	-327.66
	24	0.005	-7.14502E-002	-1.31531E-005	0.00000E+000	-7.16500E-002	1.14022E-003	7	...........	-327.66
	25	0.0052	-8.15502E-002	-1.35047E-005	0.00000E+000	-8.16500E-002	1.06522E-003	7	...........	-327.66
	26	0.0054	-9.15002E-002	-1.38455E-005	0.00000E+000	-9.16500E-002	1.11522E-003	7	...........	-327.66
	27	0.0056	-1.01625E-001	-1.41913E-005	0.00000E+000	-1.01650E-001	1.11522E-003	7	...........	-327.66
	28	0.0058	-1.11375E-001	-1.45321E-005	0.00000E+000	-1.11650E-001	1.24022E-003	7	...........	-327.66
	29	0.006	-1.21575E-001	-1.48701E-005	0.00000E+000	-1.21650E-001	1.06522E-003	7	...........	-327.66
	30	0.0062	-1.31538E-001	-1.52032E-005	0.00000E+000	-1.31650E-001	1.11522E-003	7	...........	-327.66
	31	0.0064	-1.41488E-001	-1.55405E-005	0.00000E+000	-1.41650E-001	1.06522E-003	7	...........	-327.66
	32	0.0066	-1.51400E-001	-1.58723E-005	0.00000E+000	-1.51650E-001	1.09022E-003	7	...........	-327.66
	33	0.0068	-1.61513E-001	-1.62071E-005	0.00000E+000	-1.61650E-001	1.21522E-003	7	...........	-327.66
	34	0.007	-1.71563E-001	-1.65378E-005	0.00000E+000	-1.71650E-001	1.06522E-003	7	...........	-327.66
	35	0.0072	-1.81525E-001	-1.68709E-005	0.00000E+000	-1.81650E-001	1.14022E-003	7	...........	-327.66
	36	0.0074	-1.91363E-001	-1.71957E-005	0.00000E+000	-1.91650E-001	1.16522E-003	7	...........	-327.66
	37	0.0076	-2.01550E-001	-1.75267E-005	0.00000E+000	-2.01650E-001	1.19022E-003	7	...........	-327.66
	38	0.0078	-2.11388E-001	-1.78558E-005	0.00000E+000	-2.11650E-001	1.04022E-003	7	...........	-327.66
	39	0.008	-2.21463E-001	-1.81793E-005	0.00000E+000	-2.21650E-001	9.15224E-004	7	...........	-327.66
	40	0.0082	-2.31400E-001	-1.85096E-005	0.00000E+000	-2.31650E-001	1.06522E-003	7	...........	-327.66
	41	0.0084	-2.41300E-001	-1.88372E-005	0.00000E+000	-2.41650E-001	1.09022E-003	7	...........	-327.66
	42	0.0086	-2.51413E-001	-1.91610E-005	0.00000E+000	-2.51650E-001	1.14022E-003	7	...........	-327.66
	43	0.0088	-2.61425E-001	-1.94888E-005	0.00000E+000	-2.61650E-001	1.14022E-003	7	...........	-327.66
	44	0.009	-2.71350E-001	-1.98110E-005	0.00000E+000	-2.71650E-001	1.06522E-003	7	...........	-327.66
	45	0.0092	-2.81525E-001	-2.01371E-005	0.00000E+000	-2.81650E-001	1.01522E-003	7	...........	-327.66
	46	0.0094	-2.91288E-001	-2.04641E-005	0.00000E+000	-2.91650E-001	1.01522E-003	7	...........	-327.66
	47	0.0096	-3.01463E-001	-2.07889E-005	0.00000E+000	-3.01650E-001	9.65224E-004	7	...........	-327.66
	48	0.0098	-3.11413E-001	-2.11127E-005	0.00000E+000	-3.11650E-001	1.11522E-003	7	...........	-327.66
	49	0.01	-3.21450E-001	-2.14408E-005	0.00000E+000	-3.21650E-001	1.04022E-003	7	...........	-327.66
	50	0.0102	-3.31525E-001	-2.17621E-005	0.00000E+000	-3.31650E-001	1.16522E-003	7	...........	-327.66
	51	0.0104	-3.41563E-001	-2.20851E-005	0.00000E+000	-3.41650E-001	1.24022E-003	7	...........	-327.66
	52	0.0106	-3.51363E-001	-2.24064E-005	0.00000E+000	-3.51650E-001	1.24022E-003	7	...........	-327.66
	53	0.0108	-3.61550E-001	-2.27292E-005	0.00000E+000	-3.61650E-001	1.09022E-003	7	...........	-327.66
	54	0.011	-3.71400E-001	-2.30522E-005	0.00000E+000	-3.71650E-001	1.09022E-003	7	...........	-327.66
	55	0.0112	-3.81463E-001	-2.33718E-005	0.00000E+000	-3.81650E-001	1.19022E-003	7	...........	-327.66
	56	0.0114	-3.91350E-001	-2.36928E-005	0.00000E+000	-3.91650E-001	1.16522E-003	7	...........	-327.66
	57	0.0116	-4.01475E-001	-2.40109E-005	0.00000E+000	-4.01650E-001	1.19022E-003	7	...........	-327.66
	58	0.0118	-4.11425E-001	-2.43352E-005	0.00000E+000	-4.11650E-001	1.04022E-003	7	...........	-327.66
	59	0.012	-4.21113E-001	-2.46557E-005	0.00000E+000	-4.21650E-001	1.06522E-003	7	...........	-327.66
	60	0.0122	-4.31288E-001	-2.49753E-005	0.00000E+000	-4.31650E-001	1.21522E-003	7	...........	-327.66
	61	0.0124	-4.41313E-001	-2.52930E-005	0.00000E+000	-4.41650E-001	1.06522E-003	7	...........	-327.66
	62	0.0126	-4.51375E-001	-2.56118E-005	0.00000E+000	-4.51650E-001	1.09022E-003	7	...........	-327.66
	63	0.0128	-4.61400E-001	-2.59289E-005	0.00000E+000	-4.61650E-001	1.16522E-003	7	...........	-327.66
	64	0.013	-4.71300E-001	-2.62467E-005	0.00000E+000	-4.71650E-001	9.90224E-004	7	...........	-327.66
	65	0.0132	-4.81438E-001	-2.65582E-005	0.00000E+000	-4.81650E-001	1.19022E-003	7	...........	-327.66
	66	0.0134	-4.91375E-001	-2.68683E-005	0.00000E+000	-4.91650E-001	1.06522E-003	7	...........	-327.66
	67	0.0136	-5.01300E-001	-2.71838E-005	0.00000E+000	-5.01650E-001	1.14022E-003	7	...........	-327.66
	68	0.0138	-5.11325E-001	-2.74908E-005	0.00000E+000	-5.11650E-001	1.21522E-003	7	...........	-327.66
	69	0.014	-5.21513E-001	-2.78051E-005	0.00000E+000	-5.21650E-001	1.14022E-003	7	...........	-327.66
	70	0.0142	-5.31450E-001	-2.81162E-005	0.00000E+000	-5.31650E-001	1.19022E-003	7	...........	-327.66
	71	0.0144	-5.41463E-001	-2.84177E-005	0.00000E+000	-5.41650E-001	1.21522E-003	7	...........	-327.66
	72	0.0146	-5.51325E-001	-2.87238E-005	0.00000E+000	-5.51650E-001	1.24022E-003	7	...........	-327.66
	73	0.0148	-5.61400E-001	-2.90283E-005	0.00000E+000	-5.61650E-001	1.19022E-003	7	...........	-327.66
	74	0.015	-5.71413E-001	-2.93283E-005	0.00000E+000	-5.71650E-001	1.14022E-003	7	...........	-327.66
	75	0.0152	-5.81325E-001	-2.96271E-005	0.00000E+000	-5.81650E-001	1.11522E-003	7	...........	-327.66
	76	0.0154	-5.91350E-001	-2.99224E-005	0.00000E+000	-5.91650E-001	1.09022E-003	7	...........	-327.66
	77	0.0156	-6.01288E-001	-3.02140E-005	0.00000E+000	-6.01650E-001	1.16522E-003	7	...........	-327.66
	78	0.0158	-6.11388E-001	-3.05063E-005	0.00000E+000	-6.11650E-001	1.14022E-003	7	...........	-327.66
	79	0.016	-6.21238E-001	-3.07925E-005	0.00000E+000	-6.21650E-001	1.21522E-003	7	...........	-327.66
	80	0.0162	-6.31313E-001	-3.10741E-005	0.00000E+000	-6.31650E-001	1.06522E-003	7	...........	-327.66
	81	0.0164	-6.41288E-001	-3.13526E-005	0.00000E+000	-6.41650E-001	1.06522E-003	7	...........	-327.66
	82	0.0166	-6.51400E-001	-3.16267E-005	0.00000E+000	-6.51650E-001	9.40224E-004	7	...........	-327.66
	83	0.0168	-6.61363E-001	-3.19012E-005	0.00000E+000	-6.61650E-001	1.01522E-003	7	...........	-327.66
	84	0.017	-6.71350E-001	-3.21662E-005	0.00000E+000	-6.71650E-001	1.06522E-003	7	...........	-327.66
	85	0.0172	-6.81350E-001	-3.24285E-005	0.00000E+000	-6.81650E-001	1.11522E-003	7	...........	-327.66
	86	0.0174	-6.91313E-001	-3.26881E-005	0.00000E+000	-6.91650E-001	1.04022E-003	7	...........	-327.66
	87	0.0176	-7.01250E-001	-3.29398E-005	0.00000E+000	-7.01650E-001	1.19022E-003	7	...........	-327.66
	88	0.0178	-7.11225E-001	-3.31854E-005	0.00000E+000	-7.11650E-001	1.19022E-003	7	...........	-327.66
	89	0.018	-7.21275E-001	-3.34199E-005	0.00000E+000	-7.21650E-001	1.16522E-003	7	...........	-327.66
	90	0.0182	-7.31275E-001	-3.36514E-005	0.00000E+000	-7.31650E-001	1.14022E-003	7	...........	-327.66
	91	0.0184	-7.41363E-001	-3.38760E-005	0.00000E+000	-7.41650E-001	1.19022E-003	7	...........	-327.66
	92	0.0186	-7.51338E-001	-3.40922E-005	0.00000E+000	-7.51650E-001	1.11522E-003	7	...........	-327.66
	93	0.0188	-7.61388E-001	-3.42975E-005	0.00000E+000	-7.61650E-001	9.15224E-004	7	...........	-327.66
	94	0.019	-7.71250E-001	-3.44928E-005	0.00000E+000	-7.71650E-001	1.24022E-003	7	...........	-327.66
	95	0.0192	-7.81250E-001	-3.46748E-005	0.00000E+000	-7.81650E-001	1.11522E-003	7	...........	-327.66
	96	0.0194	-7.91300E-001	-3.48503E-005	0.00000E+000	-7.91650E-001	1.21522E-003	7	...........	-327.66
	97	0.0196	-8.01263E-001	-3.50094E-005	0.00000E+000	-8.01650E-001	9.90224E-004	7	...........	-327.66
	98	0.0198	-8.11250E-001	-3.51566E-005	0.00000E+000	-8.11650E-001	1.06522E-003	7	...........	-327.66
	99	0.02	-8.21263E-001	-3.52892E-005	0.00000E+000	-8.21650E-001	1.14022E-003	7	...........	-327.66
	100	0.0202	-8.31225E-001	-3.54062E-005	0.00000E+000	-8.31650E-001	1.16522E-003	7	...........	-327.66
	101	0.0204	-8.41300E-001	-3.55057E-005	0.00000E+000	-8.41650E-001	1.11522E-003	7	...........	-327.66
	102	0.0206	-8.51313E-001	-3.55872E-005	0.00000E+000	-8.51650E-001	1.06522E-003	7	...........	-327.66
	103	0.0208	-8.61288E-001	-3.56445E-005	0.00000E+000	-8.61650E-001	1.06522E-003	7	...........	-327.66
	104	0.021	-8.71225E-001	-3.56880E-005	0.00000E+000	-8.71650E-001	1.04022E-003	7	...........	-327.66
	105	0.0212	-8.81413E-001	-3.57057E-005	0.00000E+000	-8.81650E-001	1.09022E-003	7	...........	-327.66
	106	0.0214	-8.91300E-001	-3.56990E-005	0.00000E+000	-8.91650E-001	1.11522E-003	7	...........	-327.66
	107	0.0216	-9.01363E-001	-3.56697E-005	0.00000E+000	-9.01650E-001	1.06522E-003	7	...........	-327.66
	108	0.0218	-8.91375E-001	-3.35019E-005	0.00000E+000	-8.91650E-001	1.19022E-003	7	...........	-327.66
	109	0.022	-8.81313E-001	-3.14334E-005	0.00000E+000	-8.81650E-001	1.21522E-003	7	...........	-327.66
	110	0.0222	-8.71213E-001	-2.96744E-005	0.00000E+000	-8.71650E-001	1.19022E-003	7	...........	-327.66
	111	0.0224	-8.61463E-001	-2.81194E-005	0.00000E+000	-8.61650E-001	1.11522E-003	7	...........	-327.66
	112	0.0226	-8.51263E-001	-2.67015E-005	0.00000E+000	-8.51650E-001	1.21522E-003	7	...........	-327.66
	113	0.0228	-8.41425E-001	-2.53823E-005	0.00000E+000	-8.41650E-001	1.01522E-003	7	...........	-327.66
	114	0.023	-8.31375E-001	-2.41419E-005	0.00000E+000	-8.31650E-001	1.01522E-003	7	...........	-327.66
	115	0.0232	-8.21450E-001	-2.29595E-005	0.00000E+000	-8.21650E-001	1.11522E-003	7	...........	-327.66
	116	0.0234	-8.11400E-001	-2.18276E-005	0.00000E+000	-8.11650E-001	1.19022E-003	7	...........	-327.66
	117	0.0236	-8.01413E-001	-2.07372E-005	0.00000E+000	-8.01650E-001	1.14022E-003	7	...........	-327.66
	118	0.0238	-7.91288E-001	-1.96705E-005	0.00000E+000	-7.91650E-001	1.04022E-003	7	...........	-327.66
	119	0.024	-7.81375E-001	-1.86431E-005	0.00000E+000	-7.81650E-001	1.09022E-003	7	...........	-327.66
	120	0.0242	-7.71388E-001	-1.76385E-005	0.00000E+000	-7.71650E-001	1.06522E-003	7	...........	-327.66
	121	0.0244	-7.61425E-001	-1.66544E-005	0.00000E+000	-7.61650E-001	1.16522E-003	7	...........	-327.66
	122	0.0246	-7.51400E-001	-1.56907E-005	0.00000E+000	-7.51650E-001	1.11522E-003	7	...........	-327.66
	123	0.0248	-7.41425E-001	-1.47464E-005	0.00000E+000	-7.41650E-001	1.24022E-003	7	...........	-327.66
	124	0.025	-7.31375E-001	-1.38122E-005	0.00000E+000	-7.31650E-001	1.21522E-003	7	...........	-327.66
	125	0.0252	-7.21475E-001	-1.29019E-005	0.00000E+000	-7.21650E-001	1.21522E-003	7	...........	-327.66
	126	0.0254	-7.11388E-001	-1.19992E-005	0.00000E+000	-7.11650E-001	1.09022E-003	7	...........	-327.66
	127	0.0256	-7.01338E-001	-1.11146E-005	0.00000E+000	-7.01650E-001	1.14022E-003	7	...........	-327.66
	128	0.0258	-6.91425E-001	-1.02445E-005	0.00000E+000	-6.91650E-001	1.14022E-003	7	...........	-327.66
	129	0.026	-6.81475E-001	-9.38788E-006	0.00000E+000	-6.81650E-001	1.01522E-003	7	...........	-327.66
	130	0.0262	-6.71338E-001	-8.54476E-006	0.00000E+000	-6.71650E-001	1.14022E-003	7	...........	-327.66
	131	0.0264	-6.61425E-001	-7.70990E-006	0.00000E+000	-6.61650E-001	1.11522E-003	7	...........	-327.66
	132	0.0266	-6.51388E-001	-6.89104E-006	0.00000E+000	-6.51650E-001	1.01522E-003	7	...........	-327.66
	133	0.0268	-6.41588E-001	-6.08342E-006	0.00000E+000	-6.41650E-001	1.24022E-003	7	...........	-327.66
	134	0.027	-6.31363E-001	-5.28582E-006	0.00000E+000	-6.31650E-001	1.14022E-003	7	...........	-327.66
	135	0.0272	-6.21500E-001	-4.50596E-006	0.00000E+000	-6.21650E-001	1.16522E-003	7	...........	-327.66
	136	0.0274	-6.11425E-001	-3.73010E-006	0.00000E+000	-6.11650E-001	1.16522E-003	7	...........	-327.66
	137	0.0276	-6.01488E-001	-2.97775E-006	0.00000E+000	-6.01650E-001	1.21522E-003	7	...........	-327.66
	138	0.0278	-5.91425E-001	-2.22940E-006	0.00000E+000	-5.91650E-001	1.29022E-003	7	...........	-327.66
	139	0.028	-5.81525E-001	-1.49255E-006	0.00000E+000	-5.81650E-001	1.09022E-003	7	...........	-327.66
	140	0.0282	-5.71463E-001	-7.67201E-007	0.00000E+000	-5.71650E-001	1.19022E-003	7	...........	-327.66
	141	0.0284	-5.61525E-001	-5.06030E-008	0.00000E+000	-5.61650E-001	1.11522E-003	7	...........	-327.66
	142	0.0286	-5.51513E-001	6.55493E-007	0.00000E+000	-5.51650E-001	1.24022E-003	7	...........	-327.66
	143	0.0288	-5.41463E-001	1.34434E-006	0.00000E+000	-5.41650E-001	1.19022E-003	7	...........	-327.66
	144	0.029	-5.31550E-001	2.02218E-006	0.00000E+000	-5.31650E-001	1.06522E-003	7	...........	-327.66
	145	0.0292	-5.21600E-001	2.69802E-006	0.00000E+000	-5.21650E-001	1.19022E-003	7	...........	-327.66
	146	0.0294	-5.11575E-001	3.36111E-006	0.00000E+000	-5.11650E-001	1.09022E-003	7	...........	-327.66
	147	0.0296	-5.01500E-001	4.01645E-006	0.00000E+000	-5.01650E-001	1.06522E-003	7	...........	-327.66
	148	0.0298	-4.91388E-001	4.66554E-006	0.00000E+000	-4.91650E-001	1.16522E-003	7	...........	-327.66
	149	0.03	-4.81613E-001	5.29963E-006	0.00000E+000	-4.81650E-001	1.16522E-003	7	...........	-327.66
	150	0.0302	-4.71388E-001	5.93146E-006	0.00000E+000	-4.71650E-001	1.19022E-003	7	...........	-327.66
	151	0.0304	-4.61538E-001	6.54930E-006	0.00000E+000	-4.61650E-001	1.11522E-003	7	...........	-327.66
	152	0.0306	-4.51450E-001	7.16063E-006	0.00000E+000	-4.51650E-001	1.21522E-003	7	...........	-327.66
	153	0.0308	-4.41475E-001	7.76746E-006	0.00000E+000	-4.41650E-001	1.21522E-003	7	...........	-327.66
	154	0.031	-4.31600E-001	8.36679E-006	0.00000E+000	-4.31650E-001	1.21522E-003	7	...........	-327.66
	155	0.0312	-4.21650E-001	8.95212E-006	0.00000E+000	-4.21650E-001	1.11522E-003	7	...........	-327.66
	156	0.0314	-4.11625E-001	9.53095E-006	0.00000E+000	-4.11650E-001	1.11522E-003	7	...........	-327.66
	157	0.0316	-4.01663E-001	1.01078E-005	0.00000E+000	-4.01650E-001	1.21522E-003	7	...........	-327.66
	158	0.0318	-3.91575E-001	1.06731E-005	0.00000E+000	-3.91650E-001	1.01522E-003	7	...........	-327.66
	159	0.032	-3.81650E-001	1.12319E-005	0.00000E+000	-3.81650E-001	1.21522E-003	7	...........	-327.66
	160	0.0322	-3.71438E-001	1.17835E-005	0.00000E+000	-3.71650E-001	1.19022E-003	7	...........	-327.66
	161	0.0324	-3.61663E-001	1.23303E-005	0.00000E+000	-3.61650E-001	9.40224E-004	7	...........	-327.66
	162	0.0326	-3.51550E-001	1.28647E-005	0.00000E+000	-3.51650E-001	1.09022E-003	7	...........	-327.66
	163	0.0328	-3.41638E-001	1.33875E-005	0.00000E+000	-3.41650E-001	1.16522E-003	7	...........	-327.66
	164	0.033	-3.31650E-001	1.39105E-005	0.00000E+000	-3.31650E-001	1.01522E-003	7	...........	-327.66
	165	0.0332	-3.21675E-001	1.44201E-005	0.00000E+000	-3.21650E-001	1.09022E-003	7	...........	-327.66
	166	0.0334	-3.11613E-001	1.49239E-005	0.00000E+000	-3.11650E-001	1.09022E-003	7	...........	-327.66
	167	0.0336	-3.01588E-001	1.54170E-005	0.00000E+000	-3.01650E-001	1.06522E-003	7	...........	-327.66
	168	0.0338	-2.91363E-001	1.59016E-005	0.00000E+000	-2.91650E-001	9.90224E-004	7	...........	-327.66
	169	0.034	-2.81663E-001	1.63794E-005	0.00000E+000	-2.81650E-001	1.14022E-003	7	...........	-327.66
	170	0.0342	-2.71600E-001	1.68434E-005	0.00000E+000	-2.71650E-001	1.16522E-003	7	...........	-327.66
	171	0.0344	-2.61663E-001	1.72975E-005	0.00000E+000	-2.61650E-001	1.24022E-003	7	...........	-327.66
	172	0.0346	-2.51625E-001	1.77476E-005	0.00000E+000	-2.51650E-001	1.29022E-003	7	...........	-327.66
	173	0.0348	-2.41675E-001	1.81819E-005	0.00000E+000	-2.41650E-001	1.19022E-003	7	...........	-327.66
	174	0.035	-2.31663E-001	1.86094E-005	0.00000E+000	-2.31650E-001	1.21522E-003	7	...........	-327.66
	175	0.0352	-2.21488E-001	1.90262E-005	0.00000E+000	-2.21650E-001	1.16522E-003	7	...........	-327.66
	176	0.0354	-2.11613E-001	1.94311E-005	0.00000E+000	-2.11650E-001	1.04022E-003	7	...........	-327.66
	177	0.0356	-2.01663E-001	1.98266E-005	0.00000E+000	-2.01650E-001	9.90224E-004	7	...........	-327.66
	178	0.0358	-1.91563E-001	2.02104E-005	0.00000E+000	-1.91650E-001	1.14022E-003	7	...........	-327.66
	179	0.036	-1.81663E-001	2.05860E-005	0.00000E+000	-1.81650E-001	1.16522E-003	7	...........	-327.66
	180	0.0362	-1.71625E-001	2.09530E-005	0.00000E+000	-1.71650E-001	1.16522E-003	7	...........	-327.66
	181	0.0364	-1.61713E-001	2.13046E-005	0.00000E+000	-1.61650E-001	1.14022E-003	7	...........	-327.66
	182	0.0366	-1.51663E-001	2.16504E-005	0.00000E+000	-1.51650E-001	1.19022E-003	7	...........	-327.66
	183	0.0368	-1.41563E-001	2.19836E-005	0.00000E+000	-1.41650E-001	1.06522E-003	7	...........	-327.66
	184	0.037	-1.31713E-001	2.23014E-005	0.00000E+000	-1.31650E-001	1.06522E-003	7	...........	-327.66
	185	0.0372	-1.21700E-001	2.26122E-005	0.00000E+000	-1.21650E-001	1.21522E-003	7	...........	-327.66
	186	0.0374	-1.11463E-001	2.29163E-005	0.00000E+000	-1.11650E-001	1.19022E-003	7	...........	-327.66
	187	0.0376	-1.01663E-001	2.32058E-005	0.00000E+000	-1.01650E-001	1.11522E-003	7	...........	-327.66
	188	0.0378	-9.15752E-002	2.34879E-005	0.00000E+000	-9.16500E-002	1.14022E-003	7	...........	-327.66
	189	0.038	-8.16627E-002	2.37609E-005	0.00000E+000	-8.16500E-002	1.24022E-003	7	...........	-327.66
	190	0.0382	-7.16252E-002	2.40172E-005	0.00000E+000	-7.16500E-002	1.11522E-003	7	...........	-327.66
	191	0.0384	-6.16377E-002	2.42720E-005	0.00000E+000	-6.16500E-002	1.29022E-003	7	...........	-327.66
	192	0.0386	-5.16502E-002	2.45160E-005	0.00000E+000	-5.16500E-002	1.14022E-003	7	...........	-327.66
	193	0.0388	-4.17002E-002	2.47543E-005	0.00000E+000	-4.16500E-002	1.14022E-003	7	...........	-327.66
	194	0.039	-3.15752E-002	2.49738E-005	0.00000E+000	-3.16500E-002	1.14022E-003	7	...........	-327.66
	195	0.0392	-2.16627E-002	2.51931E-005	0.00000E+000	-2.16500E-002	1.04022E-003	7	...........	-327.66
	196	0.0394	-1.14002E-002	2.53989E-005	0.00000E+000	-1.16500E-002	1.11522E-003	7	...........	-327.66
	197	0.0396	-1.62519E-003	2.55946E-005	0.00000E+000	-1.65001E-003	1.11522E-003	7	...........	-327.66
	198	0.0398	8.29981E-003	2.57902E-005	0.00000E+000	8.34998E-003	1.01522E-003	7	...........	-327.66
	199	0.04	1.83623E-002	2.59659E-005	0.00000E+000	1.83500E-002	1.09022E-003	7	...........	-327.66
	200	0.0402	2.83623E-002	2.61502E-005	0.00000E+000	2.83500E-002	1.14022E-003	7	...........	-327.66
	201	0.0404	3.83373E-002	2.63175E-005	0.00000E+000	3.83500E-002	1.21522E-003	7	...........	-327.66
	202	0.0406	4.84373E-002	2.64790E-005	0.00000E+000	4.83500E-002	1.21522E-003	7	...........	-327.66
	203	0.0408	5.83748E-002	2.66335E-005	0.00000E+000	5.83500E-002	1.11522E-003	7	...........	-327.66
	204	0.041	6.83623E-002	2.67806E-005	0.00000E+000	6.83500E-002	1.11522E-003	7	...........	-327.66
	205	0.0412	7.83123E-002	2.69236E-005	0.00000E+000	7.83500E-002	1.11522E-003	7	...........	-327.66
	206	0.0414	8.83748E-002	2.70583E-005	0.00000E+000	8.83500E-002	1.19022E-003	7	...........	-327.66
	207	0.0416	9.83623E-002	2.71919E-005	0.00000E+000	9.83500E-002	1.14022E-003	7	...........	-327.66
	208	0.0418	1.08312E-001	2.73176E-005	0.00000E+000	1.08350E-001	1.19022E-003	7	...........	-327.66
	209	0.042	1.18350E-001	2.74414E-005	0.00000E+000	1.18350E-001	1.16522E-003	7	...........	-327.66
	210	0.0422	1.28337E-001	2.75624E-005	0.00000E+000	1.28350E-001	1.16522E-003	7	...........	-327.66
	211	0.0424	1.38437E-001	2.76739E-005	0.00000E+000	1.38350E-001	1.19022E-003	7	...........	-327.66
	212	0.0426	1.48337E-001	2.77814E-005	0.00000E+000	1.48350E-001	1.14022E-003	7	...........	-327.66
	213	0.0428	1.58337E-001	2.78787E-005	0.00000E+000	1.58350E-001	1.24022E-003	7	...........	-327.66
	214	0.043	1.68337E-001	2.79755E-005	0.00000E+000	1.68350E-001	1.14022E-003	7	...........	-327.66
	215	0.0432	1.78337E-001	2.80610E-005	0.00000E+000	1.78350E-001	9.90224E-004	7	...........	-327.66
	216	0.0434	1.88387E-001	2.81440E-005	0.00000E+000	1.88350E-001	1.01522E-003	7	...........	-327.66
	217	0.0436	1.98337E-001	2.82207E-005	0.00000E+000	1.98350E-001	1.11522E-003	7	...........	-327.66
	218	0.0438	2.08337E-001	2.82938E-005	0.00000E+000	2.08350E-001	1.09022E-003	7	...........	-327.66
	219	0.044	2.18337E-001	2.83643E-005	0.00000E+000	2.18350E-001	1.04022E-003	7	...........	-327.66
	220	0.0442	2.28262E-001	2.84305E-005	0.00000E+000	2.28350E-001	1.11522E-003	7	...........	-327.66
	221	0.0444	2.38375E-001	2.84935E-005	0.00000E+000	2.38350E-001	1.11522E-003	7	...........	-327.66
	222	0.0446	2.48375E-001	2.85530E-005	0.00000E+000	2.48350E-001	1.19022E-003	7	...........	-327.66
	223	0.0448	2.58337E-001	2.86078E-005	0.00000E+000	2.58350E-001	1.11522E-003	7	...........	-327.66
	224	0.045	2.68275E-001	2.86573E-005	0.00000E+000	2.68350E-001	9.65224E-004	7	...........	-327.66
	225	0.0452	2.78312E-001	2.87053E-005	0.00000E+000	2.78350E-001	1.19022E-003	7	...........	-327.66
	226	0.0454	2.88325E-001	2.87413E-005	0.00000E+000	2.88350E-001	1.19022E-003	7	...........	-327.66
	227	0.0456	2.98312E-001	2.87698E-005	0.00000E+000	2.98350E-001	1.09022E-003	7	...........	-327.66
	228	0.0458	3.08362E-001	2.87938E-005	0.00000E+000	3.08350E-001	1.14022E-003	7	...........	-327.66
	229	0.046	3.18337E-001	2.88133E-005	0.00000E+000	3.18350E-001	1.21522E-003	7	...........	-327.66
	230	0.0462	3.28312E-001	2.88188E-005	0.00000E+000	3.28350E-001	1.24022E-003	7	...........	-327.66
	231	0.0464	3.38350E-001	2.88231E-005	0.00000E+000	3.38350E-001	1.21522E-003	7	...........	-327.66
	232	0.0466	3.48437E-001	2.88188E-005	0.00000E+000	3.48350E-001	1.14022E-003	7	...........	-327.66
	233	0.0468	3.58312E-001	2.88126E-005	0.00000E+000	3.58350E-001	1.24022E-003	7	...........	-327.66
	234	0.047	3.68262E-001	2.87953E-005	0.00000E+000	3.68350E-001	1.16522E-003	7	...........	-327.66
	235	0.0472	3.78362E-001	2.87741E-005	0.00000E+000	3.78350E-001	1.21522E-003	7	...........	-327.66
	236	0.0474	3.88337E-001	2.87498E-005	0.00000E+000	3.88350E-001	1.29022E-003	7	...........	-327.66
	237	0.0476	3.98325E-001	2.87261E-005	0.00000E+000	3.98350E-001	1.24022E-003	7	...........	-327.66
	238	0.0478	4.08400E-001	2.86921E-005	0.00000E+000	4.08350E-001	1.16522E-003	7	...........	-327.66
	239	0.048	4.18362E-001	2.86611E-005	0.00000E+000	4.18350E-001	1.29022E-003	7	...........	-327.66
	240	0.0482	4.28262E-001	2.86236E-005	0.00000E+000	4.28350E-001	1.19022E-003	7	...........	-327.66
	241	0.0484	4.38262E-001	2.85888E-005	0.00000E+000	4.38350E-001	1.29022E-003	7	...........	-327.66
	242	0.0486	4.48362E-001	2.85523E-005	0.00000E+000	4.48350E-001	1.09022E-003	7	...........	-327.66
	243	0.0488	4.58350E-001	2.85113E-005	0.00000E+000	4.58350E-001	1.14022E-003	7	...........	-327.66
	244	0.049	4.68237E-001	2.84695E-005	0.00000E+000	4.68350E-001	1.16522E-003	7	...........	-327.66
	245	0.0492	4.78387E-001	2.84305E-005	0.00000E+000	4.78350E-001	1.21522E-003	7	...........	-327.66
	246	0.0494	4.88337E-001	2.83963E-005	0.00000E+000	4.88350E-001	1.06522E-003	7	...........	-327.66
	247	0.0496	4.98362E-001	2.83568E-005	0.00000E+000	4.98350E-001	1.09022E-003	7	...........	-327.66
	248	0.0498	5.08262E-001	2.83185E-005	0.00000E+000	5.08350E-001	1.16522E-003	7	...........	-327.66
	249	0.05	5.18312E-001	2.82863E-005	0.00000E+000	5.18350E-001	1.09022E-003	7	...........	-327.66
	250	0.0502	5.28475E-001	2.82535E-005	0.00000E+000	5.28350E-001	1.21522E-003	7	...........	-327.66
	251	0.0504	5.38312E-001	2.82200E-005	0.00000E+000	5.38350E-001	1.24022E-003	7	...........	-327.66
	252	0.0506	5.48350E-001	2.81920E-005	0.00000E+000	5.48350E-001	1.29022E-003	7	...........	-327.66
	253	0.0508	5.58337E-001	2.81687E-005	0.00000E+000	5.58350E-001	1.24022E-003	7	...........	-327.66
	254	0.051	5.68312E-001	2.81420E-005	0.00000E+000	5.68350E-001	1.19022E-003	7	...........	-327.66
	255	0.0512	5.78350E-001	2.81227E-005	0.00000E+000	5.78350E-001	1.09022E-003	7	...........	-327.66
	256	0.0514	5.88237E-001	2.81040E-005	0.00000E+000	5.88350E-001	1.19022E-003	7	...........	-327.66
	257	0.0516	5.98275E-001	2.80907E-005	0.00000E+000	5.98350E-001	1.21522E-003	7	...........	-327.66
CURVE2	TABLE
	Pt	T	Vf	Im	Vu	Sig	Ach	IERange	Over	Temp
	#	s	V vs. Ref.	A	V	V	V	#	bits	deg C
	258	0.0518	5.89900E-001	2.57987E-005	0.00000E+000	5.90000E-001	1.19022E-003	7	...........	-327.66
	259	0.052	5.79937E-001	2.34799E-005	0.00000E+000	5.80000E-001	1.16522E-003	7	...........	-327.66
	260	0.0522	5.69950E-001	2.15536E-005	0.00000E+000	5.70000E-001	1.09022E-003	7	...........	-327.66
	261	0.0524	5.59937E-001	1.99011E-005	0.00000E+000	5.60000E-001	1.01522E-003	7	...........	-327.66
	262	0.0526	5.49987E-001	1.84464E-005	0.00000E+000	5.50000E-001	1.21522E-003	7	...........	-327.66
	263	0.0528	5.39987E-001	1.71315E-005	0.00000E+000	5.40000E-001	1.11522E-003	7	...........	-327.66
	264	0.053	5.30200E-001	1.59343E-005	0.00000E+000	5.30000E-001	1.11522E-003	7	...........	-327.66
	265	0.0532	5.19975E-001	1.48207E-005	0.00000E+000	5.20000E-001	1.14022E-003	7	...........	-327.66
	266	0.0534	5.10000E-001	1.37823E-005	0.00000E+000	5.10000E-001	1.11522E-003	7	...........	-327.66
	267	0.0536	5.00012E-001	1.28094E-005	0.00000E+000	5.00000E-001	1.21522E-003	7	...........	-327.66
	268	0.0538	4.90000E-001	1.18840E-005	0.00000E+000	4.90000E-001	1.04022E-003	7	...........	-327.66
	269	0.054	4.79937E-001	1.10084E-005	0.00000E+000	4.80000E-001	1.04022E-003	7	...........	-327.66
	270	0.0542	4.69900E-001	1.01743E-005	0.00000E+000	4.70000E-001	1.14022E-003	7	...........	-327.66
	271	0.0544	4.59937E-001	9.37568E-006	0.00000E+000	4.60000E-001	1.14022E-003	7	...........	-327.66
	272	0.0546	4.50062E-001	8.60958E-006	0.00000E+000	4.50000E-001	1.16522E-003	7	...........	-327.66
	273	0.0548	4.39937E-001	7.86998E-006	0.00000E+000	4.40000E-001	1.09022E-003	7	...........	-327.66
	274	0.055	4.30062E-001	7.16188E-006	0.00000E+000	4.30000E-001	1.24022E-003	7	...........	-327.66
	275	0.0552	4.19975E-001	6.47654E-006	0.00000E+000	4.20000E-001	1.09022E-003	7	...........	-327.66
	276	0.0554	4.10112E-001	5.81120E-006	0.00000E+000	4.10000E-001	1.14022E-003	7	...........	-327.66
	277	0.0556	4.00062E-001	5.16436E-006	0.00000E+000	4.00000E-001	1.21522E-003	7	...........	-327.66
	278	0.0558	3.89987E-001	4.53877E-006	0.00000E+000	3.90000E-001	1.06522E-003	7	...........	-327.66
	279	0.056	3.80012E-001	3.92944E-006	0.00000E+000	3.80000E-001	1.04022E-003	7	...........	-327.66
	280	0.0562	3.70087E-001	3.33736E-006	0.00000E+000	3.70000E-001	1.09022E-003	7	...........	-327.66
	281	0.0564	3.59937E-001	2.76003E-006	0.00000E+000	3.60000E-001	1.09022E-003	7	...........	-327.66
	282	0.0566	3.50062E-001	2.19045E-006	0.00000E+000	3.50000E-001	1.16522E-003	7	...........	-327.66
	283	0.0568	3.40012E-001	1.64038E-006	0.00000E+000	3.40000E-001	1.14022E-003	7	...........	-327.66
	284	0.057	3.30112E-001	1.10255E-006	0.00000E+000	3.30000E-001	1.01522E-003	7	...........	-327.66
	285	0.0572	3.19987E-001	5.73982E-007	0.00000E+000	3.20000E-001	1.14022E-003	7	...........	-327.66
	286	0.0574	3.10087E-001	5.86619E-008	0.00000E+000	3.10000E-001	1.09022E-003	7	...........	-327.66
	287	0.0576	2.99962E-001	-4.49157E-007	0.00000E+000	3.00000E-001	1.24022E-003	7	...........	-327.66
	288	0.0578	2.90162E-001	-9.41724E-007	0.00000E+000	2.90000E-001	1.29022E-003	7	...........	-327.66
	289	0.058	2.79950E-001	-1.42804E-006	0.00000E+000	2.80000E-001	1.09022E-003	7	...........	-327.66
	290	0.0582	2.70087E-001	-1.90661E-006	0.00000E+000	2.70000E-001	1.21522E-003	7	...........	-327.66
	291	0.0584	2.60087E-001	-2.38017E-006	0.00000E+000	2.60000E-001	1.19022E-003	7	...........	-327.66
	292	0.0586	2.50087E-001	-2.83923E-006	0.00000E+000	2.50000E-001	1.04022E-003	7	...........	-327.66
	293	0.0588	2.40075E-001	-3.29154E-006	0.00000E+000	2.40000E-001	1.01522E-003	7	...........	-327.66
	294	0.059	2.30037E-001	-3.73936E-006	0.00000E+000	2.30000E-001	9.90224E-004	7	...........	-327.66
	295	0.0592	2.20075E-001	-4.18567E-006	0.00000E+000	2.20000E-001	1.16522E-003	7	...........	-327.66
	296	0.0594	2.10075E-001	-4.61998E-006	0.00000E+000	2.10000E-001	1.04022E-003	7	...........	-327.66
	297	0.0596	2.00062E-001	-5.05003E-006	0.00000E+000	2.00000E-001	9.90224E-004	7	...........	-327.66
	298	0.0598	1.90250E-001	-5.47209E-006	0.00000E+000	1.90000E-001	1.19022E-003	7	...........	-327.66
	299	0.06	1.80112E-001	-5.88940E-006	0.00000E+000	1.80000E-001	1.09022E-003	7	...........	-327.66
	300	0.0602	1.70212E-001	-6.30396E-006	0.00000E+000	1.70000E-001	1.04022E-003	7	...........	-327.66
	301	0.0604	1.60125E-001	-6.71101E-006	0.00000E+000	1.60000E-001	1.04022E-003	7	...........	-327.66
	302	0.0606	1.50187E-001	-7.11407E-006	0.00000E+000	1.50000E-001	1.04022E-003	7	...........	-327.66
	303	0.0608	1.40187E-001	-7.51262E-006	0.00000E+000	1.40000E-001	1.16522E-003	7	...........	-327.66
	304	0.061	1.30212E-001	-7.90292E-006	0.00000E+000	1.30000E-001	1.06522E-003	7	...........	-327.66
	305	0.0612	1.20125E-001	-8.29323E-006	0.00000E+000	1.20000E-001	1.09022E-003	7	...........	-327.66
	306	0.0614	1.10187E-001	-8.67953E-006	0.00000E+000	1.10000E-001	1.19022E-003	7	...........	-327.66
	307	0.0616	1.00012E-001	-9.06208E-006	0.00000E+000	1.00000E-001	1.29022E-003	7	...........	-327.66
	308	0.0618	9.02498E-002	-9.44238E-006	0.00000E+000	9.00000E-002	1.21522E-003	7	...........	-327.66
	309	0.062	8.00748E-002	-9.81518E-006	0.00000E+000	8.00000E-002	1.16522E-003	7	...........	-327.66
	310	0.0622	7.02373E-002	-1.01842E-005	0.00000E+000	7.00000E-002	1.09022E-003	7	...........	-327.66
	311	0.0624	6.01623E-002	-1.05523E-005	0.00000E+000	6.00000E-002	1.21522E-003	7	...........	-327.66
	312	0.0626	5.01998E-002	-1.09196E-005	0.00000E+000	5.00000E-002	1.04022E-003	7	...........	-327.66
	313	0.0628	4.01998E-002	-1.12816E-005	0.00000E+000	4.00000E-002	1.24022E-003	7	...........	-327.66
	314	0.063	3.01123E-002	-1.16397E-005	0.00000E+000	3.00000E-002	1.16522E-003	7	...........	-327.66
	315	0.0632	2.01623E-002	-1.19952E-005	0.00000E+000	2.00000E-002	1.14022E-003	7	...........	-327.66
	316	0.0634	1.02248E-002	-1.23463E-005	0.00000E+000	9.99999E-003	1.19022E-003	7	...........	-327.66
	317	0.0636	2.12313E-004	-1.26973E-005	0.00000E+000	-1.49012E-008	1.01522E-003	7	...........	-327.66
	318	0.0638	-9.78769E-003	-1.30454E-005	0.00000E+000	-1.00000E-002	1.24022E-003	7	...........	-327.66
	319	0.064	-1.98877E-002	-1.33892E-005	0.00000E+000	-2.00000E-002	1.19022E-003	7	...........	-327.66
	320	0.0642	-2.98252E-002	-1.37310E-005	0.00000E+000	-3.00000E-002	1.16522E-003	7	...........	-327.66
	321	0.0644	-3.98002E-002	-1.40693E-005	0.00000E+000	-4.00000E-002	1.04022E-003	7	...........	-327.66
	322	0.0646	-4.99127E-002	-1.44071E-005	0.00000E+000	-5.00000E-002	1.21522E-003	7	...........	-327.66
	323	0.0648	-5.98252E-002	-1.47416E-005	0.00000E+000	-6.00000E-002	1.14022E-003	7	...........	-327.66
	324	0.065	-6.98252E-002	-1.50749E-005	0.00000E+000	-7.00000E-002	1.06522E-003	7	...........	-327.66
	325	0.0652	-7.98627E-002	-1.54029E-005	0.00000E+000	-8.00000E-002	1.19022E-003	7	...........	-327.66
	326	0.0654	-8.98502E-002	-1.57342E-005	0.00000E+000	-9.00000E-002	1.01522E-003	7	...........	-327.66
	327	0.0656	-9.99127E-002	-1.60623E-005	0.00000E+000	-1.00000E-001	1.09022E-003	7	...........	-327.66
	328	0.0658	-1.09738E-001	-1.63906E-005	0.00000E+000	-1.10000E-001	1.04022E-003	7	...........	-327.66
	329	0.066	-1.19900E-001	-1.67146E-005	0.00000E+000	-1.20000E-001	1.11522E-003	7	...........	-327.66
	330	0.0662	-1.29800E-001	-1.70357E-005	0.00000E+000	-1.30000E-001	1.24022E-003	7	...........	-327.66
	331	0.0664	-1.39763E-001	-1.73580E-005	0.00000E+000	-1.40000E-001	1.11522E-003	7	...........	-327.66
	332	0.0666	-1.49788E-001	-1.76760E-005	0.00000E+000	-1.50000E-001	9.90224E-004	7	...........	-327.66
	333	0.0668	-1.59838E-001	-1.79945E-005	0.00000E+000	-1.60000E-001	1.06522E-003	7	...........	-327.66
	334	0.067	-1.69813E-001	-1.83101E-005	0.00000E+000	-1.70000E-001	1.11522E-003	7	...........	-327.66
	335	0.0672	-1.79888E-001	-1.86319E-005	0.00000E+000	-1.80000E-001	9.90224E-004	7	...........	-327.66
	336	0.0674	-1.89713E-001	-1.89437E-005	0.00000E+000	-1.90000E-001	1.04022E-003	7	...........	-327.66
	337	0.0676	-1.99963E-001	-1.92607E-005	0.00000E+000	-2.00000E-001	1.24022E-003	7	...........	-327.66
	338	0.0678	-2.09763E-001	-1.95710E-005	0.00000E+000	-2.10000E-001	1.24022E-003	7	...........	-327.66
	339	0.068	-2.19700E-001	-1.98851E-005	0.00000E+000	-2.20000E-001	1.16522E-003	7	...........	-327.66
	340	0.0682	-2.29800E-001	-2.01968E-005	0.00000E+000	-2.30000E-001	9.65224E-004	7	...........	-327.66
	341	0.0684	-2.39788E-001	-2.05139E-005	0.00000E+000	-2.40000E-001	1.11522E-003	7	...........	-327.66
	342	0.0686	-2.49750E-001	-2.08237E-005	0.00000E+000	-2.50000E-001	1.24022E-003	7	...........	-327.66
	343	0.0688	-2.59813E-001	-2.11320E-005	0.00000E+000	-2.60000E-001	1.14022E-003	7	...........	-327.66
	344	0.069	-2.69688E-001	-2.14410E-005	0.00000E+000	-2.70000E-001	1.29022E-003	7	...........	-327.66
	345	0.0692	-2.79825E-001	-2.17508E-005	0.00000E+000	-2.80000E-001	1.29022E-003	7	...........	-327.66
	346	0.0694	-2.89713E-001	-2.20599E-005	0.00000E+000	-2.90000E-001	1.09022E-003	7	...........	-327.66
	347	0.0696	-2.99813E-001	-2.23646E-005	0.00000E+000	-3.00000E-001	1.14022E-003	7	...........	-327.66
	348	0.0698	-3.09675E-001	-2.26712E-005	0.00000E+000	-3.10000E-001	9.90224E-004	7	...........	-327.66
	349	0.07	-3.19888E-001	-2.29752E-005	0.00000E+000	-3.20000E-001	1.19022E-003	7	...........	-327.66
	350	0.0702	-3.29888E-001	-2.32795E-005	0.00000E+000	-3.30000E-001	1.09022E-003	7	...........	-327.66
	351	0.0704	-3.39738E-001	-2.35823E-005	0.00000E+000	-3.40000E-001	1.16522E-003	7	...........	-327.66
	352	0.0706	-3.49700E-001	-2.38844E-005	0.00000E+000	-3.50000E-001	1.24022E-003	7	...........	-327.66
	353	0.0708	-3.59838E-001	-2.41884E-005	0.00000E+000	-3.60000E-001	1.14022E-003	7	...........	-327.66
	354	0.071	-3.69875E-001	-2.44862E-005	0.00000E+000	-3.70000E-001	1.24022E-003	7	...........	-327.66
	355	0.0712	-3.79738E-001	-2.47935E-005	0.00000E+000	-3.80000E-001	1.16522E-003	7	...........	-327.66
	356	0.0714	-3.89688E-001	-2.50873E-005	0.00000E+000	-3.90000E-001	1.16522E-003	7	...........	-327.66
	357	0.0716	-3.99813E-001	-2.53818E-005	0.00000E+000	-4.00000E-001	1.11522E-003	7	...........	-327.66
	358	0.0718	-4.09775E-001	-2.56788E-005	0.00000E+000	-4.10000E-001	1.06522E-003	7	...........	-327.66
	359	0.072	-4.19713E-001	-2.59711E-005	0.00000E+000	-4.20000E-001	1.04022E-003	7	...........	-327.66
	360	0.0722	-4.29663E-001	-2.62682E-005	0.00000E+000	-4.30000E-001	1.11522E-003	7	...........	-327.66
	361	0.0724	-4.39775E-001	-2.65575E-005	0.00000E+000	-4.40000E-001	1.19022E-003	7	...........	-327.66
	362	0.0726	-4.49700E-001	-2.68500E-005	0.00000E+000	-4.50000E-001	1.21522E-003	7	...........	-327.66
	363	0.0728	-4.59763E-001	-2.71360E-005	0.00000E+000	-4.60000E-001	1.16522E-003	7	...........	-327.66
	364	0.073	-4.69650E-001	-2.74246E-005	0.00000E+000	-4.70000E-001	9.90224E-004	7	...........	-327.66
	365	0.0732	-4.79775E-001	-2.77116E-005	0.00000E+000	-4.80000E-001	1.09022E-003	7	...........	-327.66
	366	0.0734	-4.89713E-001	-2.79919E-005	0.00000E+000	-4.90000E-001	1.09022E-003	7	...........	-327.66
	367	0.0736	-4.99763E-001	-2.82725E-005	0.00000E+000	-5.00000E-001	1.11522E-003	7	...........	-327.66
	368	0.0738	-5.09700E-001	-2.85507E-005	0.00000E+000	-5.10000E-001	1.21522E-003	7	...........	-327.66
	369	0.074	-5.19663E-001	-2.88305E-005	0.00000E+000	-5.20000E-001	1.21522E-003	7	...........	-327.66
	370	0.0742	-5.29650E-001	-2.91058E-005	0.00000E+000	-5.30000E-001	1.19022E-003	7	...........	-327.66
	371	0.0744	-5.39675E-001	-2.93801E-005	0.00000E+000	-5.40000E-001	1.29022E-003	7	...........	-327.66
	372	0.0746	-5.49650E-001	-2.96461E-005	0.00000E+000	-5.50000E-001	1.24022E-003	7	...........	-327.66
[...]
	702	0.1406	-8.49725E-001	-3.58552E-005	0.00000E+000	-8.50000E-001	1.29022E-003	7	...........	-327.66
	703	0.1408	-8.59638E-001	-3.58997E-005	0.00000E+000	-8.60000E-001	1.14022E-003	7	...........	-327.66
	704	0.141	-8.69675E-001	-3.59315E-005	0.00000E+000	-8.70000E-001	1.29022E-003	7	...........	-327.66
	705	0.1412	-8.79688E-001	-3.59470E-005	0.00000E+000	-8.80000E-001	1.24022E-003	7	...........	-327.66
	706	0.1414	-8.89688E-001	-3.59447E-005	0.00000E+000	-8.90000E-001	1.16522E-003	7	...........	-327.66
	707	0.1416	-8.99663E-001	-3.59257E-005	0.00000E+000	-9.00000E-001	1.09022E-003	7	...........	-327.66
	708	0.1418	-8.89675E-001	-3.36799E-005	0.00000E+000	-8.90000E-001	1.09022E-003	7	...........	-327.66
	709	0.142	-8.79650E-001	-3.14419E-005	0.00000E+000	-8.80000E-001	1.19022E-003	7	...........	-327.66
	710	0.1422	-8.69675E-001	-2.94904E-005	0.00000E+000	-8.70000E-001	1.04022E-003	7	...........	-327.66
	711	0.1424	-8.59775E-001	-2.77341E-005	0.00000E+000	-8.60000E-001	1.04022E-003	7	...........	-327.66
	712	0.1426	-8.49713E-001	-2.61167E-005	0.00000E+000	-8.50000E-001	1.01522E-003	7	...........	-327.66
	713	0.1428	-8.39763E-001	-2.46077E-005	0.00000E+000	-8.40000E-001	1.14022E-003	7	...........	-327.66
	714	0.143	-8.29638E-001	-2.31798E-005	0.00000E+000	-8.30000E-001	1.04022E-003	7	...........	-327.66
	715	0.1432	-8.19863E-001	-2.18206E-005	0.00000E+000	-8.20000E-001	9.90224E-004	7	...........	-327.66
	716	0.1434	-8.09650E-001	-2.05164E-005	0.00000E+000	-8.10000E-001	1.16522E-003	7	...........	-327.66
	717	0.1436	-7.99763E-001	-1.92650E-005	0.00000E+000	-8.00000E-001	1.14022E-003	7	...........	-327.66
	718	0.1438	-7.89688E-001	-1.80606E-005	0.00000E+000	-7.90000E-001	1.09022E-003	7	...........	-327.66
	719	0.144	-7.79638E-001	-1.68884E-005	0.00000E+000	-7.80000E-001	1.04022E-003	7	...........	-327.66
	720	0.1442	-7.69663E-001	-1.57567E-005	0.00000E+000	-7.70000E-001	1.14022E-003	7	...........	-327.66
	721	0.1444	-7.59750E-001	-1.46616E-005	0.00000E+000	-7.60000E-001	1.09022E-003	7	...........	-327.66
	722	0.1446	-7.49688E-001	-1.35937E-005	0.00000E+000	-7.50000E-001	1.14022E-003	7	...........	-327.66
	723	0.1448	-7.39800E-001	-1.25548E-005	0.00000E+000	-7.40000E-001	1.09022E-003	7	...........	-327.66
	724	0.145	-7.29788E-001	-1.15479E-005	0.00000E+000	-7.30000E-001	1.04022E-003	7	...........	-327.66
	725	0.1452	-7.19838E-001	-1.05653E-005	0.00000E+000	-7.20000E-001	1.01522E-003	7	...........	-327.66
	726	0.1454	-7.09675E-001	-9.61016E-006	0.00000E+000	-7.10000E-001	9.90224E-004	7	...........	-327.66
	727	0.1456	-6.99850E-001	-8.68153E-006	0.00000E+000	-7.00000E-001	1.11522E-003	7	...........	-327.66
	728	0.1458	-6.89775E-001	-7.77266E-006	0.00000E+000	-6.90000E-001	1.16522E-003	7	...........	-327.66
	729	0.146	-6.79788E-001	-6.89554E-006	0.00000E+000	-6.80000E-001	1.21522E-003	7	...........	-327.66
	730	0.1462	-6.69750E-001	-6.03567E-006	0.00000E+000	-6.70000E-001	8.65224E-004	7	...........	-327.66
	731	0.1464	-6.59913E-001	-5.20180E-006	0.00000E+000	-6.60000E-001	1.11522E-003	7	...........	-327.66
	732	0.1466	-6.49750E-001	-4.38544E-006	0.00000E+000	-6.50000E-001	1.19022E-003	7	...........	-327.66
	733	0.1468	-6.39725E-001	-3.58934E-006	0.00000E+000	-6.40000E-001	9.40224E-004	7	...........	-327.66
	734	0.147	-6.29725E-001	-2.81473E-006	0.00000E+000	-6.30000E-001	1.01522E-003	7	...........	-327.66
	735	0.1472	-6.19813E-001	-2.05813E-006	0.00000E+000	-6.20000E-001	1.04022E-003	7	...........	-327.66
	736	0.1474	-6.09850E-001	-1.31878E-006	0.00000E+000	-6.10000E-001	1.16522E-003	7	...........	-327.66
	737	0.1476	-5.99913E-001	-5.91927E-007	0.00000E+000	-6.00000E-001	1.24022E-003	7	...........	-327.66
	738	0.1478	-5.89813E-001	1.22171E-007	0.00000E+000	-5.90000E-001	1.04022E-003	7	...........	-327.66
	739	0.148	-5.79875E-001	8.18015E-007	0.00000E+000	-5.80000E-001	1.11522E-003	7	...........	-327.66
	740	0.1482	-5.69838E-001	1.50461E-006	0.00000E+000	-5.70000E-001	1.06522E-003	7	...........	-327.66
	741	0.1484	-5.59875E-001	2.17770E-006	0.00000E+000	-5.60000E-001	1.11522E-003	7	...........	-327.66
	742	0.1486	-5.49825E-001	2.84454E-006	0.00000E+000	-5.50000E-001	1.01522E-003	7	...........	-327.66
	743	0.1488	-5.39925E-001	3.50038E-006	0.00000E+000	-5.40000E-001	1.16522E-003	7	...........	-327.66
	744	0.149	-5.29925E-001	4.15222E-006	0.00000E+000	-5.30000E-001	1.19022E-003	7	...........	-327.66
	745	0.1492	-5.19963E-001	4.79156E-006	0.00000E+000	-5.20000E-001	1.29022E-003	7	...........	-327.66
	746	0.1494	-5.09938E-001	5.42864E-006	0.00000E+000	-5.10000E-001	1.19022E-003	7	...........	-327.66
	747	0.1496	-4.99813E-001	6.05648E-006	0.00000E+000	-5.00000E-001	1.29022E-003	7	...........	-327.66
	748	0.1498	-4.89938E-001	6.68056E-006	0.00000E+000	-4.90000E-001	1.19022E-003	7	...........	-327.66
	749	0.15	-4.79913E-001	7.29765E-006	0.00000E+000	-4.80000E-001	1.14022E-003	7	...........	-327.66
	750	0.1502	-4.69825E-001	7.91673E-006	0.00000E+000	-4.70000E-001	1.29022E-003	7	...........	-327.66
	751	0.1504	-4.60013E-001	8.52957E-006	0.00000E+000	-4.60000E-001	1.14022E-003	7	...........	-327.66
	752	0.1506	-4.49850E-001	9.13715E-006	0.00000E+000	-4.50000E-001	1.16522E-003	7	...........	-327.66
	753	0.1508	-4.39988E-001	9.74248E-006	0.00000E+000	-4.40000E-001	1.09022E-003	7	...........	-327.66
	754	0.151	-4.29988E-001	1.03446E-005	0.00000E+000	-4.30000E-001	1.16522E-003	7	...........	-327.66
	755	0.1512	-4.20038E-001	1.09414E-005	0.00000E+000	-4.20000E-001	1.14022E-003	7	...........	-327.66
	756	0.1514	-4.09988E-001	1.15342E-005	0.00000E+000	-4.10000E-001	1.14022E-003	7	...........	-327.66
	757	0.1516	-3.99938E-001	1.21236E-005	0.00000E+000	-4.00000E-001	1.01522E-003	7	...........	-327.66
	758	0.1518	-3.89875E-001	1.27134E-005	0.00000E+000	-3.90000E-001	1.21522E-003	7	...........	-327.66
	759	0.152	-3.79988E-001	1.32897E-005	0.00000E+000	-3.80000E-001	9.40224E-004	7	...........	-327.66
	760	0.1522	-3.69800E-001	1.38648E-005	0.00000E+000	-3.70000E-001	1.16522E-003	7	...........	-327.66
	761	0.1524	-3.60063E-001	1.44344E-005	0.00000E+000	-3.60000E-001	1.04022E-003	7	...........	-327.66
	762	0.1526	-3.49900E-001	1.49972E-005	0.00000E+000	-3.50000E-001	1.06522E-003	7	...........	-327.66
	763	0.1528	-3.40025E-001	1.55470E-005	0.00000E+000	-3.40000E-001	1.24022E-003	7	...........	-327.66
	764	0.153	-3.29988E-001	1.60966E-005	0.00000E+000	-3.30000E-001	1.29022E-003	7	...........	-327.66
	765	0.1532	-3.19925E-001	1.66382E-005	0.00000E+000	-3.20000E-001	1.04022E-003	7	...........	-327.66
	766	0.1534	-3.09938E-001	1.71692E-005	0.00000E+000	-3.10000E-001	9.90224E-004	7	...........	-327.66
	767	0.1536	-3.00075E-001	1.76848E-005	0.00000E+000	-3.00000E-001	1.06522E-003	7	...........	-327.66
	768	0.1538	-2.89888E-001	1.81996E-005	0.00000E+000	-2.90000E-001	1.19022E-003	7	...........	-327.66
	769	0.154	-2.80038E-001	1.86967E-005	0.00000E+000	-2.80000E-001	1.11522E-003	7	...........	-327.66
	770	0.1542	-2.70025E-001	1.91868E-005	0.00000E+000	-2.70000E-001	9.90224E-004	7	...........	-327.66
	771	0.1544	-2.59988E-001	1.96638E-005	0.00000E+000	-2.60000E-001	1.04022E-003	7	...........	-327.66
	772	0.1546	-2.49938E-001	2.01271E-005	0.00000E+000	-2.50000E-001	1.09022E-003	7	...........	-327.66
	773	0.1548	-2.40063E-001	2.05820E-005	0.00000E+000	-2.40000E-001	1.14022E-003	7	...........	-327.66
	774	0.155	-2.30000E-001	2.10230E-005	0.00000E+000	-2.30000E-001	1.21522E-003	7	...........	-327.66
	775	0.1552	-2.19913E-001	2.14528E-005	0.00000E+000	-2.20000E-001	1.16522E-003	7	...........	-327.66
	776	0.1554	-2.10038E-001	2.18641E-005	0.00000E+000	-2.10000E-001	1.21522E-003	7	...........	-327.66
	777	0.1556	-2.00063E-001	2.22672E-005	0.00000E+000	-2.00000E-001	1.14022E-003	7	...........	-327.66
	778	0.1558	-1.90013E-001	2.26597E-005	0.00000E+000	-1.90000E-001	1.16522E-003	7	...........	-327.66
	779	0.156	-1.80000E-001	2.30360E-005	0.00000E+000	-1.80000E-001	1.29022E-003	7	...........	-327.66
	780	0.1562	-1.70050E-001	2.33998E-005	0.00000E+000	-1.70000E-001	1.29022E-003	7	...........	-327.66
	781	0.1564	-1.60038E-001	2.37504E-005	0.00000E+000	-1.60000E-001	1.11522E-003	7	...........	-327.66
	782	0.1566	-1.49988E-001	2.40884E-005	0.00000E+000	-1.50000E-001	1.21522E-003	7	...........	-327.66
	783	0.1568	-1.40025E-001	2.44137E-005	0.00000E+000	-1.40000E-001	1.14022E-003	7	...........	-327.66
	784	0.157	-1.30013E-001	2.47318E-005	0.00000E+000	-1.30000E-001	1.19022E-003	7	...........	-327.66
	785	0.1572	-1.19988E-001	2.50338E-005	0.00000E+000	-1.20000E-001	1.19022E-003	7	...........	-327.66
	786	0.1574	-1.10063E-001	2.53276E-005	0.00000E+000	-1.10000E-001	1.09022E-003	7	...........	-327.66
	787	0.1576	-1.00063E-001	2.56074E-005	0.00000E+000	-1.00000E-001	1.19022E-003	7	...........	-327.66
	788	0.1578	-9.00002E-002	2.58752E-005	0.00000E+000	-9.00000E-002	1.09022E-003	7	...........	-327.66
	789	0.158	-8.00377E-002	2.61345E-005	0.00000E+000	-8.00000E-002	1.16522E-003	7	...........	-327.66
	790	0.1582	-6.99752E-002	2.63875E-005	0.00000E+000	-7.00000E-002	1.06522E-003	7	...........	-327.66
	791	0.1584	-5.99877E-002	2.66228E-005	0.00000E+000	-6.00000E-002	1.06522E-003	7	...........	-327.66
	792	0.1586	-4.99627E-002	2.68566E-005	0.00000E+000	-5.00000E-002	1.14022E-003	7	...........	-327.66
	793	0.1588	-4.00127E-002	2.70753E-005	0.00000E+000	-4.00000E-002	9.65224E-004	7	...........	-327.66
	794	0.159	-3.00252E-002	2.72924E-005	0.00000E+000	-3.00000E-002	9.65224E-004	7	...........	-327.66
	795	0.1592	-2.00252E-002	2.74987E-005	0.00000E+000	-2.00000E-002	1.06522E-003	7	...........	-327.66
	796	0.1594	-1.01127E-002	2.76962E-005	0.00000E+000	-1.00000E-002	9.65224E-004	7	...........	-327.66
	797	0.1596	-1.26875E-005	2.78937E-005	0.00000E+000	-1.49012E-008	1.09022E-003	7	...........	-327.66
	798	0.1598	1.00373E-002	2.80832E-005	0.00000E+000	9.99999E-003	1.19022E-003	7	...........	-327.66
	799	0.16	2.00123E-002	2.82738E-005	0.00000E+000	2.00000E-002	1.16522E-003	7	...........	-327.66
	800	0.1602	2.99498E-002	2.84603E-005	0.00000E+000	3.00000E-002	1.06522E-003	7	...........	-327.66
	801	0.1604	3.98248E-002	2.86481E-005	0.00000E+000	4.00000E-002	1.16522E-003	7	...........	-327.66
	802	0.1606	4.99873E-002	2.88278E-005	0.00000E+000	5.00000E-002	1.11522E-003	7	...........	-327.66
	803	0.1608	5.99498E-002	2.89976E-005	0.00000E+000	6.00000E-002	1.14022E-003	7	...........	-327.66
	804	0.161	6.99873E-002	2.91651E-005	0.00000E+000	7.00000E-002	1.01522E-003	7	...........	-327.66
	805	0.1612	7.99373E-002	2.93219E-005	0.00000E+000	8.00000E-002	1.14022E-003	7	...........	-327.66
	806	0.1614	8.99498E-002	2.94717E-005	0.00000E+000	9.00000E-002	1.09022E-003	7	...........	-327.66
	807	0.1616	9.99873E-002	2.96134E-005	0.00000E+000	1.00000E-001	1.01522E-003	7	...........	-327.66
	808	0.1618	1.09912E-001	2.97492E-005	0.00000E+000	1.10000E-001	1.06522E-003	7	...........	-327.66
	809	0.162	1.19937E-001	2.98732E-005	0.00000E+000	1.20000E-001	1.14022E-003	7	...........	-327.66
	810	0.1622	1.30025E-001	3.00002E-005	0.00000E+000	1.30000E-001	1.21522E-003	7	...........	-327.66
	811	0.1624	1.40075E-001	3.01083E-005	0.00000E+000	1.40000E-001	1.11522E-003	7	...........	-327.66
	812	0.1626	1.50037E-001	3.02130E-005	0.00000E+000	1.50000E-001	1.16522E-003	7	...........	-327.66
	813	0.1628	1.59962E-001	3.03118E-005	0.00000E+000	1.60000E-001	1.14022E-003	7	...........	-327.66
	814	0.163	1.70075E-001	3.04045E-005	0.00000E+000	1.70000E-001	1.14022E-003	7	...........	-327.66
	815	0.1632	1.79975E-001	3.04833E-005	0.00000E+000	1.80000E-001	1.11522E-003	7	...........	-327.66
	816	0.1634	1.89975E-001	3.05608E-005	0.00000E+000	1.90000E-001	1.09022E-003	7	...........	-327.66
	817	0.1636	1.99912E-001	3.06303E-005	0.00000E+000	2.00000E-001	1.21522E-003	7	...........	-327.66
	818	0.1638	2.09937E-001	3.06896E-005	0.00000E+000	2.10000E-001	1.16522E-003	7	...........	-327.66
	819	0.164	2.19937E-001	3.07466E-005	0.00000E+000	2.20000E-001	1.14022E-003	7	...........	-327.66
	820	0.1642	2.29937E-001	3.07991E-005	0.00000E+000	2.30000E-001	1.11522E-003	7	...........	-327.66
	821	0.1644	2.39912E-001	3.08334E-005	0.00000E+000	2.40000E-001	1.19022E-003	7	...........	-327.66
	822	0.1646	2.49925E-001	3.08656E-005	0.00000E+000	2.50000E-001	1.09022E-003	7	...........	-327.66
	823	0.1648	2.59912E-001	3.08856E-005	0.00000E+000	2.60000E-001	1.21522E-003	7	...........	-327.66
	824	0.165	2.70087E-001	3.08974E-005	0.00000E+000	2.70000E-001	1.09022E-003	7	...........	-327.66
	825	0.1652	2.79912E-001	3.09024E-005	0.00000E+000	2.80000E-001	1.11522E-003	7	...........	-327.66
	826	0.1654	2.89900E-001	3.09011E-005	0.00000E+000	2.90000E-001	1.09022E-003	7	...........	-327.66
	827	0.1656	2.99937E-001	3.08906E-005	0.00000E+000	3.00000E-001	1.06522E-003	7	...........	-327.66
	828	0.1658	3.09987E-001	3.08764E-005	0.00000E+000	3.10000E-001	1.14022E-003	7	...........	-327.66
	829	0.166	3.19987E-001	3.08591E-005	0.00000E+000	3.20000E-001	1.14022E-003	7	...........	-327.66
	830	0.1662	3.29950E-001	3.08359E-005	0.00000E+000	3.30000E-001	1.14022E-003	7	...........	-327.66
	831	0.1664	3.39937E-001	3.08041E-005	0.00000E+000	3.40000E-001	1.14022E-003	7	...........	-327.66
	832	0.1666	3.50012E-001	3.07718E-005	0.00000E+000	3.50000E-001	1.09022E-003	7	...........	-327.66
	833	0.1668	3.59937E-001	3.07366E-005	0.00000E+000	3.60000E-001	1.14022E-003	7	...........	-327.66
	834	0.167	3.69962E-001	3.06946E-005	0.00000E+000	3.70000E-001	1.04022E-003	7	...........	-327.66
	835	0.1672	3.79937E-001	3.06533E-005	0.00000E+000	3.80000E-001	1.09022E-003	7	...........	-327.66
	836	0.1674	3.89962E-001	3.06073E-005	0.00000E+000	3.90000E-001	1.19022E-003	7	...........	-327.66
	837	0.1676	3.99950E-001	3.05616E-005	0.00000E+000	4.00000E-001	1.16522E-003	7	...........	-327.66
	838	0.1678	4.09875E-001	3.05143E-005	0.00000E+000	4.10000E-001	1.21522E-003	7	...........	-327.66
	839	0.168	4.20025E-001	3.04661E-005	0.00000E+000	4.20000E-001	1.14022E-003	7	...........	-327.66
	840	0.1682	4.29987E-001	3.04150E-005	0.00000E+000	4.30000E-001	1.04022E-003	7	...........	-327.66
	841	0.1684	4.39937E-001	3.03658E-005	0.00000E+000	4.40000E-001	1.11522E-003	7	...........	-327.66
	842	0.1686	4.50175E-001	3.03173E-005	0.00000E+000	4.50000E-001	1.14022E-003	7	...........	-327.66
	843	0.1688	4.59912E-001	3.02643E-005	0.00000E+000	4.60000E-001	1.14022E-003	7	...........	-327.66
	844	0.169	4.69950E-001	3.02165E-005	0.00000E+000	4.70000E-001	1.24022E-003	7	...........	-327.66
	845	0.1692	4.79937E-001	3.01705E-005	0.00000E+000	4.80000E-001	1.14022E-003	7	...........	-327.66
	846	0.1694	4.89937E-001	3.01240E-005	0.00000E+000	4.90000E-001	1.19022E-003	7	...........	-327.66
	847	0.1696	4.99937E-001	3.00728E-005	0.00000E+000	5.00000E-001	1.09022E-003	7	...........	-327.66
	848	0.1698	5.09862E-001	3.00325E-005	0.00000E+000	5.10000E-001	1.04022E-003	7	...........	-327.66
	849	0.17	5.19862E-001	2.99930E-005	0.00000E+000	5.20000E-001	1.14022E-003	7	...........	-327.66
	850	0.1702	5.29987E-001	2.99557E-005	0.00000E+000	5.30000E-001	1.16522E-003	7	...........	-327.66
	851	0.1704	5.39962E-001	2.99207E-005	0.00000E+000	5.40000E-001	1.16522E-003	7	...........	-327.66
	852	0.1706	5.50000E-001	2.98922E-005	0.00000E+000	5.50000E-001	1.19022E-003	7	...........	-327.66
	853	0.1708	5.59912E-001	2.98637E-005	0.00000E+000	5.60000E-001	9.90224E-004	7	...........	-327.66
	854	0.171	5.69950E-001	2.98325E-005	0.00000E+000	5.70000E-001	1.09022E-003	7	...........	-327.66
	855	0.1712	5.79887E-001	2.98122E-005	0.00000E+000	5.80000E-001	1.11522E-003	7	...........	-327.66
	856	0.1714	5.89950E-001	2.97977E-005	0.00000E+000	5.90000E-001	1.16522E-003	7	...........	-327.66
	857	0.1716	5.99937E-001	2.97837E-005	0.00000E+000	6.00000E-001	1.04022E-003	7	...........	-327.66
CURVE4	TABLE
	Pt	T	Vf	Im	Vu	Sig	Ach	IERange	Over	Temp
	#	s	V vs. Ref.	A	V	V	V	#	bits	deg C
	858	0.1718	5.89962E-001	2.72339E-005	0.00000E+000	5.90000E-001	1.14022E-003	7	...........	-327.66
	859	0.172	5.79937E-001	2.48530E-005	0.00000E+000	5.80000E-001	1.19022E-003	7	...........	-327.66
	860	0.1722	5.69962E-001	2.28753E-005	0.00000E+000	5.70000E-001	1.11522E-003	7	...........	-327.66
	861	0.1724	5.59962E-001	2.11620E-005	0.00000E+000	5.60000E-001	1.29022E-003	7	...........	-327.66
	862	0.1726	5.50000E-001	1.96351E-005	0.00000E+000	5.50000E-001	1.16522E-003	7	...........	-327.66
	863	0.1728	5.39962E-001	1.82499E-005	0.00000E+000	5.40000E-001	1.01522E-003	7	...........	-327.66
	864	0.173	5.29937E-001	1.69765E-005	0.00000E+000	5.30000E-001	1.11522E-003	7	...........	-327.66
	865	0.1732	5.19912E-001	1.57921E-005	0.00000E+000	5.20000E-001	1.14022E-003	7	...........	-327.66
	866	0.1734	5.10012E-001	1.46817E-005	0.00000E+000	5.10000E-001	1.11522E-003	7	...........	-327.66
	867	0.1736	4.99975E-001	1.36373E-005	0.00000E+000	5.00000E-001	1.14022E-003	7	...........	-327.66
	868	0.1738	4.89937E-001	1.26479E-005	0.00000E+000	4.90000E-001	1.11522E-003	7	...........	-327.66
	869	0.174	4.79975E-001	1.17032E-005	0.00000E+000	4.80000E-001	1.11522E-003	7	...........	-327.66
	870	0.1742	4.69987E-001	1.08004E-005	0.00000E+000	4.70000E-001	1.11522E-003	7	...........	-327.66
	871	0.1744	4.59962E-001	9.93401E-006	0.00000E+000	4.60000E-001	1.04022E-003	7	...........	-327.66
	872	0.1746	4.50200E-001	9.10414E-006	0.00000E+000	4.50000E-001	1.14022E-003	7	...........	-327.66
	873	0.1748	4.39962E-001	8.30329E-006	0.00000E+000	4.40000E-001	1.16522E-003	7	...........	-327.66
	874	0.175	4.30112E-001	7.52768E-006	0.00000E+000	4.30000E-001	1.29022E-003	7	...........	-327.66
	875	0.1752	4.20037E-001	6.78108E-006	0.00000E+000	4.20000E-001	1.06522E-003	7	...........	-327.66
	876	0.1754	4.09975E-001	6.05423E-006	0.00000E+000	4.10000E-001	1.06522E-003	7	...........	-327.66
	877	0.1756	4.00050E-001	5.35513E-006	0.00000E+000	4.00000E-001	1.11522E-003	7	...........	-327.66
	878	0.1758	3.89987E-001	4.66754E-006	0.00000E+000	3.90000E-001	1.09022E-003	7	...........	-327.66
	879	0.176	3.79987E-001	4.00395E-006	0.00000E+000	3.80000E-001	1.21522E-003	7	...........	-327.66
	880	0.1762	3.70000E-001	3.35586E-006	0.00000E+000	3.70000E-001	1.04022E-003	7	...........	-327.66
	881	0.1764	3.60012E-001	2.72403E-006	0.00000E+000	3.60000E-001	1.29022E-003	7	...........	-327.66
	882	0.1766	3.50062E-001	2.10894E-006	0.00000E+000	3.50000E-001	1.14022E-003	7	...........	-327.66
	883	0.1768	3.40037E-001	1.50611E-006	0.00000E+000	3.40000E-001	1.14022E-003	7	...........	-327.66
	884	0.177	3.30062E-001	9.21780E-007	0.00000E+000	3.30000E-001	1.14022E-003	7	...........	-327.66
	885	0.1772	3.20112E-001	3.46451E-007	0.00000E+000	3.20000E-001	1.14022E-003	7	...........	-327.66
	886	0.1774	3.10062E-001	-2.22376E-007	0.00000E+000	3.10000E-001	1.06522E-003	7	...........	-327.66
	887	0.1776	3.00062E-001	-7.74202E-007	0.00000E+000	3.00000E-001	1.11522E-003	7	...........	-327.66
	888	0.1778	2.90125E-001	-1.31227E-006	0.00000E+000	2.90000E-001	1.11522E-003	7	...........	-327.66
	889	0.178	2.80062E-001	-1.84060E-006	0.00000E+000	2.80000E-001	1.16522E-003	7	...........	-327.66
	890	0.1782	2.70187E-001	-2.36517E-006	0.00000E+000	2.70000E-001	9.90224E-004	7	...........	-327.66
	891	0.1784	2.59987E-001	-2.87599E-006	0.00000E+000	2.60000E-001	1.04022E-003	7	...........	-327.66
	892	0.1786	2.50150E-001	-3.37456E-006	0.00000E+000	2.50000E-001	1.16522E-003	7	...........	-327.66
	893	0.1788	2.40025E-001	-3.87187E-006	0.00000E+000	2.40000E-001	1.24022E-003	7	...........	-327.66
	894	0.179	2.30150E-001	-4.36044E-006	0.00000E+000	2.30000E-001	1.11522E-003	7	...........	-327.66
	895	0.1792	2.20150E-001	-4.84176E-006	0.00000E+000	2.20000E-001	1.06522E-003	7	...........	-327.66
	896	0.1794	2.10225E-001	-5.31432E-006	0.00000E+000	2.10000E-001	1.04022E-003	7	...........	-327.66
	897	0.1796	2.00025E-001	-5.77688E-006	0.00000E+000	2.00000E-001	1.16522E-003	7	...........	-327.66
	898	0.1798	1.90187E-001	-6.23220E-006	0.00000E+000	1.90000E-001	1.14022E-003	7	...........	-327.66
	899	0.18	1.80037E-001	-6.68776E-006	0.00000E+000	1.80000E-001	1.14022E-003	7	...........	-327.66
	900	0.1802	1.70175E-001	-7.13332E-006	0.00000E+000	1.70000E-001	8.65224E-004	7	...........	-327.66